STUDYID,USUBJID,AESEQ,ASTDT,AENDT,ASTDY,AENDY,ADURN,ADURU,AETERM,AEDECOD,AEBODSYS,AESEV,AESER,AESCAN,AESCONG,AESDISAB,AESDTH,AESHOSP,AESLIFE,AESOD,AEREL,AEACN,AEOUT,AETOXGR,TRTEMFL,TRTA,TRTAN,SERREAS,AOCCFL,AOCCSFL,SITEID
STUDY001,STUDY001-SUBJ0001,1,2025-09-06,,-54,,,DAYS,NAUSEA,NAUSEA,CARDIAC DISORDERS,SEVERE,Y,CTCAE,N,Y,N,Y,Y,N,NOT RELATED,DOSE NOT CHANGED,RECOVERING/RESOLVING,3,N,Treatment 3,3,"LIFE THREATENING, REQUIRES HOSPITALIZATION, RESULTS IN DISABILITY",Y,Y,17
STUDY001,STUDY001-SUBJ0001,2,2025-10-30,,1,,,DAYS,RASH,RASH,GASTROINTESTINAL DISORDERS,MODERATE,N,CTCAE,N,N,N,N,Y,N,RELATED,DRUG WITHDRAWN,NOT RECOVERED/NOT RESOLVED,2,Y,Treatment 3,3,"LIFE THREATENING, MEDICALLY IMPORTANT EVENT",N,N,17
STUDY001,STUDY001-SUBJ0001,3,2026-01-15,2026-01-23,78,86,9,DAYS,DIARRHEA,DIARRHEA,RESPIRATORY DISORDERS,MODERATE,N,CTCAE,N,Y,Y,Y,Y,N,NOT RELATED,DOSE REDUCED,FATAL,2,Y,Treatment 3,3,"RESULTS IN DEATH, LIFE THREATENING, REQUIRES HOSPITALIZATION, RESULTS IN DISABILITY",Y,N,17
STUDY001,STUDY001-SUBJ0002,1,2025-11-05,2025-12-27,96,148,53,DAYS,RASH,RASH,NERVOUS SYSTEM DISORDERS,MILD,N,CTCAE,N,N,N,Y,N,N,RELATED,DRUG WITHDRAWN,RECOVERED/RESOLVED,1,Y,Treatment 2,2,REQUIRES HOSPITALIZATION,N,N,37
STUDY001,STUDY001-SUBJ0002,2,2025-09-17,2025-12-05,47,126,80,DAYS,INSOMNIA,INSOMNIA,NERVOUS SYSTEM DISORDERS,SEVERE,Y,CTCAE,N,Y,N,N,Y,N,RELATED,DOSE NOT CHANGED,RECOVERED/RESOLVED,3,Y,Treatment 2,2,"LIFE THREATENING, RESULTS IN DISABILITY, MEDICALLY IMPORTANT EVENT",N,Y,37
STUDY001,STUDY001-SUBJ0002,3,2025-08-29,2025-10-06,28,66,39,DAYS,FEVER,FEVER,GASTROINTESTINAL DISORDERS,SEVERE,Y,CTCAE,N,N,N,Y,N,N,RELATED,DRUG INTERRUPTED,RECOVERING/RESOLVING,3,Y,Treatment 2,2,REQUIRES HOSPITALIZATION,N,Y,37
STUDY001,STUDY001-SUBJ0002,4,2025-08-22,,21,,,DAYS,INSOMNIA,INSOMNIA,NERVOUS SYSTEM DISORDERS,MILD,N,CTCAE,N,N,Y,Y,Y,N,RELATED,DRUG WITHDRAWN,FATAL,1,Y,Treatment 2,2,"RESULTS IN DEATH, LIFE THREATENING, REQUIRES HOSPITALIZATION",N,N,37
STUDY001,STUDY001-SUBJ0002,5,2025-12-23,2025-12-27,144,148,5,DAYS,RASH,RASH,CARDIAC DISORDERS,MILD,N,CTCAE,N,N,N,N,N,N,RELATED,DOSE NOT CHANGED,NOT RECOVERED/NOT RESOLVED,1,Y,Treatment 2,2,MEDICALLY IMPORTANT EVENT,N,N,37
STUDY001,STUDY001-SUBJ0004,1,2025-11-02,2025-11-21,166,185,20,DAYS,COUGH,COUGH,CARDIAC DISORDERS,MILD,N,CTCAE,N,Y,N,N,Y,N,RELATED,DRUG WITHDRAWN,RECOVERING/RESOLVING,1,Y,Treatment 2,2,"LIFE THREATENING, RESULTS IN DISABILITY",N,N,1
STUDY001,STUDY001-SUBJ0004,2,2025-11-08,,172,,,DAYS,NAUSEA,NAUSEA,NERVOUS SYSTEM DISORDERS,SEVERE,Y,CTCAE,N,N,N,Y,N,N,RELATED,NOT APPLICABLE,RECOVERING/RESOLVING,3,Y,Treatment 2,2,REQUIRES HOSPITALIZATION,Y,Y,1
STUDY001,STUDY001-SUBJ0004,3,2025-12-09,2026-01-04,203,229,27,DAYS,HEADACHE,HEADACHE,RESPIRATORY DISORDERS,MILD,N,CTCAE,N,N,N,N,N,N,RELATED,DRUG INTERRUPTED,NOT RECOVERED/NOT RESOLVED,1,Y,Treatment 2,2,MEDICALLY IMPORTANT EVENT,Y,N,1
STUDY001,STUDY001-SUBJ0004,4,2025-11-04,2026-01-02,168,227,60,DAYS,DIARRHEA,DIARRHEA,CARDIAC DISORDERS,SEVERE,Y,CTCAE,N,Y,N,N,Y,N,NOT RELATED,DOSE REDUCED,RECOVERING/RESOLVING,3,Y,Treatment 2,2,"LIFE THREATENING, RESULTS IN DISABILITY",Y,Y,1
STUDY001,STUDY001-SUBJ0006,1,2025-09-28,,-70,,,DAYS,NAUSEA,NAUSEA,GASTROINTESTINAL DISORDERS,MODERATE,N,CTCAE,N,N,Y,N,Y,N,NOT RELATED,DRUG WITHDRAWN,FATAL,2,N,Treatment 3,3,"RESULTS IN DEATH, LIFE THREATENING, MEDICALLY IMPORTANT EVENT",Y,N,12
STUDY001,STUDY001-SUBJ0006,2,2025-11-21,2026-01-06,-16,31,47,DAYS,INSOMNIA,INSOMNIA,CARDIAC DISORDERS,SEVERE,Y,CTCAE,N,Y,N,N,Y,N,NOT RELATED,NOT APPLICABLE,NOT RECOVERED/NOT RESOLVED,3,N,Treatment 3,3,"LIFE THREATENING, RESULTS IN DISABILITY, MEDICALLY IMPORTANT EVENT",N,Y,12
STUDY001,STUDY001-SUBJ0006,3,2025-12-30,,24,,,DAYS,FEVER,FEVER,CARDIAC DISORDERS,MODERATE,N,CTCAE,N,Y,N,Y,Y,N,RELATED,NOT APPLICABLE,RECOVERED/RESOLVED,2,Y,Treatment 3,3,"LIFE THREATENING, REQUIRES HOSPITALIZATION, RESULTS IN DISABILITY, MEDICALLY IMPORTANT EVENT",N,N,12
STUDY001,STUDY001-SUBJ0006,4,2025-09-01,2025-11-26,-97,-11,87,DAYS,FATIGUE,FATIGUE,RESPIRATORY DISORDERS,MODERATE,N,CTCAE,N,N,N,N,Y,N,NOT RELATED,DOSE NOT CHANGED,NOT RECOVERED/NOT RESOLVED,2,N,Treatment 3,3,LIFE THREATENING,N,N,12
STUDY001,STUDY001-SUBJ0007,1,2025-11-02,2025-11-27,138,163,26,DAYS,COUGH,COUGH,GASTROINTESTINAL DISORDERS,MODERATE,N,CTCAE,N,Y,N,Y,N,N,RELATED,DRUG WITHDRAWN,RECOVERED/RESOLVED,2,Y,Treatment 1,1,"REQUIRES HOSPITALIZATION, RESULTS IN DISABILITY, MEDICALLY IMPORTANT EVENT",N,N,27
STUDY001,STUDY001-SUBJ0007,2,2025-06-17,2025-10-17,-1,122,123,DAYS,PAIN,PAIN,GASTROINTESTINAL DISORDERS,SEVERE,Y,CTCAE,N,N,N,N,N,N,NOT RELATED,DOSE NOT CHANGED,NOT RECOVERED/NOT RESOLVED,3,N,Treatment 1,1,MEDICALLY IMPORTANT EVENT,N,Y,27
STUDY001,STUDY001-SUBJ0007,3,2025-07-30,,43,,,DAYS,COUGH,COUGH,CARDIAC DISORDERS,MODERATE,N,CTCAE,N,N,N,N,Y,N,RELATED,DRUG WITHDRAWN,NOT RECOVERED/NOT RESOLVED,2,Y,Treatment 1,1,LIFE THREATENING,N,N,27
STUDY001,STUDY001-SUBJ0008,1,2025-12-04,,297,,,DAYS,INSOMNIA,INSOMNIA,CARDIAC DISORDERS,MODERATE,N,CTCAE,N,Y,Y,N,N,N,RELATED,DOSE REDUCED,FATAL,2,Y,Treatment 2,2,"RESULTS IN DEATH, RESULTS IN DISABILITY, MEDICALLY IMPORTANT EVENT",N,N,22
STUDY001,STUDY001-SUBJ0008,2,2025-11-27,2025-12-08,290,301,12,DAYS,COUGH,COUGH,CARDIAC DISORDERS,SEVERE,Y,CTCAE,N,N,N,N,Y,N,NOT RELATED,NOT APPLICABLE,RECOVERING/RESOLVING,3,Y,Treatment 2,2,"LIFE THREATENING, MEDICALLY IMPORTANT EVENT",N,Y,22
STUDY001,STUDY001-SUBJ0008,3,2025-08-15,2025-12-21,186,314,129,DAYS,DIARRHEA,DIARRHEA,RESPIRATORY DISORDERS,MILD,N,CTCAE,N,Y,N,N,N,N,RELATED,DRUG WITHDRAWN,RECOVERING/RESOLVING,1,Y,Treatment 2,2,"RESULTS IN DISABILITY, MEDICALLY IMPORTANT EVENT",Y,N,22
STUDY001,STUDY001-SUBJ0008,4,2025-09-17,,219,,,DAYS,VOMITING,VOMITING,RESPIRATORY DISORDERS,MILD,N,CTCAE,N,N,N,N,Y,N,RELATED,DRUG INTERRUPTED,RECOVERED/RESOLVED,1,Y,Treatment 2,2,"LIFE THREATENING, MEDICALLY IMPORTANT EVENT",N,N,22
STUDY001,STUDY001-SUBJ0008,5,2025-09-07,2025-09-22,209,224,16,DAYS,FATIGUE,FATIGUE,CARDIAC DISORDERS,SEVERE,Y,CTCAE,N,N,N,Y,N,N,RELATED,DRUG INTERRUPTED,RECOVERED/RESOLVED,3,Y,Treatment 2,2,REQUIRES HOSPITALIZATION,N,Y,22
STUDY001,STUDY001-SUBJ0009,1,2025-11-15,2026-01-05,168,219,52,DAYS,COUGH,COUGH,GASTROINTESTINAL DISORDERS,MILD,N,CTCAE,N,Y,N,Y,Y,N,RELATED,DOSE NOT CHANGED,RECOVERED/RESOLVED,1,Y,Treatment 2,2,"LIFE THREATENING, REQUIRES HOSPITALIZATION, RESULTS IN DISABILITY, MEDICALLY IMPORTANT EVENT",N,N,48
STUDY001,STUDY001-SUBJ0009,2,2025-12-20,,203,,,DAYS,NAUSEA,NAUSEA,CARDIAC DISORDERS,MILD,N,CTCAE,N,N,Y,Y,N,N,NOT RELATED,DOSE REDUCED,FATAL,1,Y,Treatment 2,2,"RESULTS IN DEATH, REQUIRES HOSPITALIZATION",Y,N,48
STUDY001,STUDY001-SUBJ0009,3,2026-01-01,2026-01-09,215,223,9,DAYS,INSOMNIA,INSOMNIA,RESPIRATORY DISORDERS,SEVERE,Y,CTCAE,N,N,N,Y,N,N,RELATED,DRUG WITHDRAWN,RECOVERED/RESOLVED,3,Y,Treatment 2,2,"REQUIRES HOSPITALIZATION, MEDICALLY IMPORTANT EVENT",N,Y,48
STUDY001,STUDY001-SUBJ0009,4,2025-10-25,2025-11-29,147,182,36,DAYS,INSOMNIA,INSOMNIA,NERVOUS SYSTEM DISORDERS,MODERATE,N,CTCAE,N,Y,Y,N,N,N,RELATED,DOSE NOT CHANGED,FATAL,2,Y,Treatment 2,2,"RESULTS IN DEATH, RESULTS IN DISABILITY, MEDICALLY IMPORTANT EVENT",N,N,48
STUDY001,STUDY001-SUBJ0009,5,2025-12-11,2026-01-02,194,216,23,DAYS,INSOMNIA,INSOMNIA,RESPIRATORY DISORDERS,SEVERE,Y,CTCAE,N,N,Y,N,Y,N,RELATED,NOT APPLICABLE,FATAL,3,Y,Treatment 2,2,"RESULTS IN DEATH, LIFE THREATENING, MEDICALLY IMPORTANT EVENT",N,Y,48
STUDY001,STUDY001-SUBJ0010,1,2025-10-04,2025-11-16,109,152,44,DAYS,HEADACHE,HEADACHE,RESPIRATORY DISORDERS,SEVERE,Y,CTCAE,N,N,N,Y,Y,N,RELATED,DRUG WITHDRAWN,RECOVERING/RESOLVING,3,Y,Treatment 1,1,"LIFE THREATENING, REQUIRES HOSPITALIZATION",Y,Y,16
STUDY001,STUDY001-SUBJ0010,2,2025-10-06,,111,,,DAYS,FEVER,FEVER,GASTROINTESTINAL DISORDERS,SEVERE,Y,CTCAE,N,N,N,Y,Y,N,NOT RELATED,DOSE NOT CHANGED,NOT RECOVERED/NOT RESOLVED,3,Y,Treatment 1,1,"LIFE THREATENING, REQUIRES HOSPITALIZATION, MEDICALLY IMPORTANT EVENT",N,Y,16
STUDY001,STUDY001-SUBJ0011,1,2025-11-14,2025-11-25,207,218,12,DAYS,VOMITING,VOMITING,NERVOUS SYSTEM DISORDERS,MODERATE,N,CTCAE,N,N,N,N,Y,N,RELATED,DRUG WITHDRAWN,RECOVERING/RESOLVING,2,Y,Treatment 1,1,LIFE THREATENING,N,N,18
STUDY001,STUDY001-SUBJ0011,2,2025-12-22,2025-12-25,245,248,4,DAYS,FEVER,FEVER,NERVOUS SYSTEM DISORDERS,MODERATE,N,CTCAE,N,Y,N,N,Y,N,RELATED,DRUG WITHDRAWN,NOT RECOVERED/NOT RESOLVED,2,Y,Treatment 1,1,"LIFE THREATENING, RESULTS IN DISABILITY, MEDICALLY IMPORTANT EVENT",N,N,18
STUDY001,STUDY001-SUBJ0011,3,2025-11-05,2025-11-09,198,202,5,DAYS,PAIN,PAIN,NERVOUS SYSTEM DISORDERS,MODERATE,N,CTCAE,N,Y,N,N,N,N,RELATED,DRUG WITHDRAWN,NOT RECOVERED/NOT RESOLVED,2,Y,Treatment 1,1,"RESULTS IN DISABILITY, MEDICALLY IMPORTANT EVENT",N,N,18
STUDY001,STUDY001-SUBJ0011,4,2025-12-06,2026-01-07,229,261,33,DAYS,DIZZINESS,DIZZINESS,NERVOUS SYSTEM DISORDERS,SEVERE,Y,CTCAE,N,N,N,N,Y,N,NOT RELATED,DOSE REDUCED,RECOVERING/RESOLVING,3,Y,Treatment 1,1,"LIFE THREATENING, MEDICALLY IMPORTANT EVENT",N,Y,18
STUDY001,STUDY001-SUBJ0013,1,2025-11-09,2025-12-17,-46,-8,39,DAYS,INSOMNIA,INSOMNIA,RESPIRATORY DISORDERS,SEVERE,Y,CTCAE,N,N,N,Y,N,N,NOT RELATED,DOSE REDUCED,RECOVERING/RESOLVING,3,N,Treatment 1,1,"REQUIRES HOSPITALIZATION, MEDICALLY IMPORTANT EVENT",N,Y,25
STUDY001,STUDY001-SUBJ0013,2,2025-11-24,2026-01-12,-31,19,50,DAYS,VOMITING,VOMITING,NERVOUS SYSTEM DISORDERS,MILD,N,CTCAE,N,N,N,Y,N,N,NOT RELATED,DOSE REDUCED,RECOVERING/RESOLVING,1,N,Treatment 1,1,"REQUIRES HOSPITALIZATION, MEDICALLY IMPORTANT EVENT",N,N,25
STUDY001,STUDY001-SUBJ0013,3,2025-09-28,,-88,,,DAYS,HEADACHE,HEADACHE,NERVOUS SYSTEM DISORDERS,MODERATE,N,CTCAE,N,N,N,N,N,N,NOT RELATED,DOSE REDUCED,RECOVERING/RESOLVING,2,N,Treatment 1,1,,Y,N,25
STUDY001,STUDY001-SUBJ0014,1,2025-03-18,2025-06-22,-23,74,97,DAYS,FEVER,FEVER,CARDIAC DISORDERS,SEVERE,Y,CTCAE,N,Y,N,Y,N,N,RELATED,DOSE NOT CHANGED,RECOVERED/RESOLVED,3,N,Treatment 3,3,"REQUIRES HOSPITALIZATION, RESULTS IN DISABILITY",N,Y,33
STUDY001,STUDY001-SUBJ0014,2,2025-03-10,,-31,,,DAYS,FEVER,FEVER,RESPIRATORY DISORDERS,MODERATE,N,CTCAE,N,N,N,Y,N,N,NOT RELATED,DOSE NOT CHANGED,NOT RECOVERED/NOT RESOLVED,2,N,Treatment 3,3,"REQUIRES HOSPITALIZATION, MEDICALLY IMPORTANT EVENT",N,N,33
STUDY001,STUDY001-SUBJ0014,3,2025-06-15,2025-11-05,67,210,144,DAYS,COUGH,COUGH,GASTROINTESTINAL DISORDERS,SEVERE,Y,CTCAE,N,Y,N,Y,Y,N,RELATED,NOT APPLICABLE,RECOVERED/RESOLVED,3,Y,Treatment 3,3,"LIFE THREATENING, REQUIRES HOSPITALIZATION, RESULTS IN DISABILITY, MEDICALLY IMPORTANT EVENT",N,Y,33
STUDY001,STUDY001-SUBJ0014,4,2025-12-07,2026-01-06,242,272,31,DAYS,DIZZINESS,DIZZINESS,CARDIAC DISORDERS,MILD,N,CTCAE,N,N,Y,N,N,N,NOT RELATED,DOSE NOT CHANGED,FATAL,1,Y,Treatment 3,3,"RESULTS IN DEATH, MEDICALLY IMPORTANT EVENT",N,N,33
STUDY001,STUDY001-SUBJ0014,5,2025-04-25,,16,,,DAYS,FATIGUE,FATIGUE,GASTROINTESTINAL DISORDERS,MODERATE,N,CTCAE,N,Y,N,N,Y,N,NOT RELATED,NOT APPLICABLE,RECOVERING/RESOLVING,2,Y,Treatment 3,3,"LIFE THREATENING, RESULTS IN DISABILITY, MEDICALLY IMPORTANT EVENT",N,N,33
STUDY001,STUDY001-SUBJ0015,1,2025-11-23,2025-12-17,172,196,25,DAYS,INSOMNIA,INSOMNIA,NERVOUS SYSTEM DISORDERS,SEVERE,Y,CTCAE,N,Y,Y,Y,Y,N,RELATED,DOSE NOT CHANGED,FATAL,3,Y,Treatment 1,1,"RESULTS IN DEATH, LIFE THREATENING, REQUIRES HOSPITALIZATION, RESULTS IN DISABILITY",N,Y,42
STUDY001,STUDY001-SUBJ0015,2,2025-12-12,2026-01-09,191,219,29,DAYS,VOMITING,VOMITING,GASTROINTESTINAL DISORDERS,MILD,N,CTCAE,N,Y,N,Y,Y,N,RELATED,DRUG INTERRUPTED,NOT RECOVERED/NOT RESOLVED,1,Y,Treatment 1,1,"LIFE THREATENING, REQUIRES HOSPITALIZATION, RESULTS IN DISABILITY, MEDICALLY IMPORTANT EVENT",N,N,42
STUDY001,STUDY001-SUBJ0015,3,2025-10-16,2025-11-01,134,150,17,DAYS,RASH,RASH,CARDIAC DISORDERS,SEVERE,Y,CTCAE,N,Y,N,Y,Y,N,NOT RELATED,DOSE REDUCED,RECOVERING/RESOLVING,3,Y,Treatment 1,1,"LIFE THREATENING, REQUIRES HOSPITALIZATION, RESULTS IN DISABILITY, MEDICALLY IMPORTANT EVENT",N,Y,42
STUDY001,STUDY001-SUBJ0015,4,2025-11-24,2025-11-29,173,178,6,DAYS,DIARRHEA,DIARRHEA,CARDIAC DISORDERS,MILD,N,CTCAE,N,N,N,N,N,N,NOT RELATED,DOSE NOT CHANGED,RECOVERED/RESOLVED,1,Y,Treatment 1,1,MEDICALLY IMPORTANT EVENT,Y,N,42
STUDY001,STUDY001-SUBJ0016,1,2025-11-25,,132,,,DAYS,NAUSEA,NAUSEA,GASTROINTESTINAL DISORDERS,MILD,N,CTCAE,N,Y,Y,Y,N,N,RELATED,DRUG INTERRUPTED,FATAL,1,Y,Treatment 2,2,"RESULTS IN DEATH, REQUIRES HOSPITALIZATION, RESULTS IN DISABILITY",Y,N,37
STUDY001,STUDY001-SUBJ0016,2,2025-12-27,2026-01-02,164,170,7,DAYS,FATIGUE,FATIGUE,NERVOUS SYSTEM DISORDERS,MODERATE,N,CTCAE,N,Y,Y,N,Y,N,NOT RELATED,DOSE NOT CHANGED,FATAL,2,Y,Treatment 2,2,"RESULTS IN DEATH, LIFE THREATENING, RESULTS IN DISABILITY, MEDICALLY IMPORTANT EVENT",N,N,37
STUDY001,STUDY001-SUBJ0016,3,2025-11-19,2026-01-10,126,178,53,DAYS,FEVER,FEVER,RESPIRATORY DISORDERS,MODERATE,N,CTCAE,N,N,N,Y,Y,N,NOT RELATED,DOSE REDUCED,RECOVERED/RESOLVED,2,Y,Treatment 2,2,"LIFE THREATENING, REQUIRES HOSPITALIZATION",N,N,37
STUDY001,STUDY001-SUBJ0016,4,2025-10-24,2025-11-23,100,130,31,DAYS,HEADACHE,HEADACHE,CARDIAC DISORDERS,MILD,N,CTCAE,N,N,Y,Y,N,N,RELATED,DOSE NOT CHANGED,FATAL,1,Y,Treatment 2,2,"RESULTS IN DEATH, REQUIRES HOSPITALIZATION, MEDICALLY IMPORTANT EVENT",Y,N,37
STUDY001,STUDY001-SUBJ0016,5,2025-10-19,2025-12-11,95,148,54,DAYS,RASH,RASH,RESPIRATORY DISORDERS,SEVERE,Y,CTCAE,N,Y,N,Y,Y,N,RELATED,DOSE NOT CHANGED,RECOVERED/RESOLVED,3,Y,Treatment 2,2,"LIFE THREATENING, REQUIRES HOSPITALIZATION, RESULTS IN DISABILITY, MEDICALLY IMPORTANT EVENT",N,Y,37
STUDY001,STUDY001-SUBJ0017,1,2025-12-27,2026-01-01,117,122,6,DAYS,NAUSEA,NAUSEA,RESPIRATORY DISORDERS,MILD,N,CTCAE,N,Y,N,N,Y,N,NOT RELATED,DOSE REDUCED,RECOVERED/RESOLVED,1,Y,Treatment 3,3,"LIFE THREATENING, RESULTS IN DISABILITY",Y,N,45
STUDY001,STUDY001-SUBJ0017,2,2026-01-06,2026-01-17,127,138,12,DAYS,FEVER,FEVER,NERVOUS SYSTEM DISORDERS,SEVERE,Y,CTCAE,N,Y,N,N,Y,N,RELATED,DRUG INTERRUPTED,NOT RECOVERED/NOT RESOLVED,3,Y,Treatment 3,3,"LIFE THREATENING, RESULTS IN DISABILITY, MEDICALLY IMPORTANT EVENT",N,Y,45
STUDY001,STUDY001-SUBJ0017,3,2025-12-20,,110,,,DAYS,DIZZINESS,DIZZINESS,RESPIRATORY DISORDERS,SEVERE,Y,CTCAE,N,Y,N,Y,N,N,NOT RELATED,DRUG WITHDRAWN,NOT RECOVERED/NOT RESOLVED,3,Y,Treatment 3,3,"REQUIRES HOSPITALIZATION, RESULTS IN DISABILITY",N,Y,45
STUDY001,STUDY001-SUBJ0017,4,2025-12-07,,97,,,DAYS,NAUSEA,NAUSEA,RESPIRATORY DISORDERS,MILD,N,CTCAE,N,N,N,N,N,N,RELATED,DOSE REDUCED,NOT RECOVERED/NOT RESOLVED,1,Y,Treatment 3,3,,Y,N,45
STUDY001,STUDY001-SUBJ0018,1,2025-08-02,2025-09-07,61,97,37,DAYS,NAUSEA,NAUSEA,GASTROINTESTINAL DISORDERS,MILD,N,CTCAE,N,Y,Y,Y,N,N,NOT RELATED,DOSE NOT CHANGED,FATAL,1,Y,Treatment 1,1,"RESULTS IN DEATH, REQUIRES HOSPITALIZATION, RESULTS IN DISABILITY",Y,N,37
STUDY001,STUDY001-SUBJ0018,2,2025-08-01,,60,,,DAYS,FEVER,FEVER,RESPIRATORY DISORDERS,MILD,N,CTCAE,N,Y,N,N,Y,N,NOT RELATED,DOSE NOT CHANGED,RECOVERED/RESOLVED,1,Y,Treatment 1,1,"LIFE THREATENING, RESULTS IN DISABILITY",N,N,37
STUDY001,STUDY001-SUBJ0018,3,2025-09-12,,102,,,DAYS,PAIN,PAIN,GASTROINTESTINAL DISORDERS,MODERATE,N,CTCAE,N,N,N,N,N,N,NOT RELATED,DRUG INTERRUPTED,NOT RECOVERED/NOT RESOLVED,2,Y,Treatment 1,1,MEDICALLY IMPORTANT EVENT,N,N,37
STUDY001,STUDY001-SUBJ0019,1,2025-09-13,2025-11-15,5,68,64,DAYS,RASH,RASH,NERVOUS SYSTEM DISORDERS,MODERATE,N,CTCAE,N,N,Y,Y,Y,N,NOT RELATED,DRUG WITHDRAWN,FATAL,2,Y,Treatment 1,1,"RESULTS IN DEATH, LIFE THREATENING, REQUIRES HOSPITALIZATION, MEDICALLY IMPORTANT EVENT",N,N,30
STUDY001,STUDY001-SUBJ0019,2,2025-08-20,2025-11-18,-20,71,91,DAYS,PAIN,PAIN,RESPIRATORY DISORDERS,MILD,N,CTCAE,N,Y,N,N,N,N,RELATED,NOT APPLICABLE,NOT RECOVERED/NOT RESOLVED,1,N,Treatment 1,1,RESULTS IN DISABILITY,N,N,30
STUDY001,STUDY001-SUBJ0019,3,2025-03-25,2025-08-06,-168,-34,135,DAYS,HEADACHE,HEADACHE,RESPIRATORY DISORDERS,SEVERE,Y,CTCAE,N,N,N,Y,N,N,RELATED,DRUG INTERRUPTED,NOT RECOVERED/NOT RESOLVED,3,N,Treatment 1,1,REQUIRES HOSPITALIZATION,Y,Y,30
STUDY001,STUDY001-SUBJ0019,4,2025-05-12,,-120,,,DAYS,FATIGUE,FATIGUE,CARDIAC DISORDERS,MODERATE,N,CTCAE,N,Y,Y,Y,Y,N,RELATED,DOSE REDUCED,FATAL,2,N,Treatment 1,1,"RESULTS IN DEATH, LIFE THREATENING, REQUIRES HOSPITALIZATION, RESULTS IN DISABILITY, MEDICALLY IMPORTANT EVENT",N,N,30
STUDY001,STUDY001-SUBJ0019,5,2025-12-28,2026-01-07,111,121,11,DAYS,RASH,RASH,NERVOUS SYSTEM DISORDERS,SEVERE,Y,CTCAE,N,Y,N,N,Y,N,RELATED,DOSE REDUCED,RECOVERING/RESOLVING,3,Y,Treatment 1,1,"LIFE THREATENING, RESULTS IN DISABILITY",N,Y,30
STUDY001,STUDY001-SUBJ0021,1,2026-01-01,2026-01-10,231,240,10,DAYS,RASH,RASH,NERVOUS SYSTEM DISORDERS,MODERATE,N,CTCAE,N,N,N,Y,Y,N,RELATED,DRUG WITHDRAWN,RECOVERED/RESOLVED,2,Y,Treatment 2,2,"LIFE THREATENING, REQUIRES HOSPITALIZATION, MEDICALLY IMPORTANT EVENT",N,N,49
STUDY001,STUDY001-SUBJ0021,2,2026-01-03,2026-01-05,233,235,3,DAYS,FEVER,FEVER,NERVOUS SYSTEM DISORDERS,MODERATE,N,CTCAE,N,Y,N,Y,N,N,NOT RELATED,DOSE NOT CHANGED,RECOVERED/RESOLVED,2,Y,Treatment 2,2,"REQUIRES HOSPITALIZATION, RESULTS IN DISABILITY, MEDICALLY IMPORTANT EVENT",N,N,49
STUDY001,STUDY001-SUBJ0021,3,2025-12-27,2025-12-30,226,229,4,DAYS,DIARRHEA,DIARRHEA,NERVOUS SYSTEM DISORDERS,SEVERE,Y,CTCAE,N,N,Y,N,Y,N,NOT RELATED,NOT APPLICABLE,FATAL,3,Y,Treatment 2,2,"RESULTS IN DEATH, LIFE THREATENING",Y,Y,49
STUDY001,STUDY001-SUBJ0022,1,2025-10-13,2025-12-05,44,97,54,DAYS,DIARRHEA,DIARRHEA,GASTROINTESTINAL DISORDERS,SEVERE,Y,CTCAE,N,Y,N,N,Y,N,NOT RELATED,DOSE REDUCED,NOT RECOVERED/NOT RESOLVED,3,Y,Treatment 2,2,"LIFE THREATENING, RESULTS IN DISABILITY",Y,Y,20
STUDY001,STUDY001-SUBJ0023,1,2026-01-10,2026-01-10,203,203,1,DAYS,HEADACHE,HEADACHE,RESPIRATORY DISORDERS,MODERATE,N,CTCAE,N,N,N,Y,N,N,RELATED,DOSE NOT CHANGED,RECOVERING/RESOLVING,2,Y,Treatment 1,1,"REQUIRES HOSPITALIZATION, MEDICALLY IMPORTANT EVENT",Y,N,4
STUDY001,STUDY001-SUBJ0023,2,2025-08-06,2025-08-07,46,47,2,DAYS,FATIGUE,FATIGUE,CARDIAC DISORDERS,MILD,N,CTCAE,N,N,N,N,Y,N,NOT RELATED,DOSE NOT CHANGED,RECOVERING/RESOLVING,1,Y,Treatment 1,1,LIFE THREATENING,N,N,4
STUDY001,STUDY001-SUBJ0023,3,2025-11-29,,161,,,DAYS,DIARRHEA,DIARRHEA,GASTROINTESTINAL DISORDERS,SEVERE,Y,CTCAE,N,N,N,N,Y,N,RELATED,DOSE NOT CHANGED,NOT RECOVERED/NOT RESOLVED,3,Y,Treatment 1,1,LIFE THREATENING,Y,Y,4
STUDY001,STUDY001-SUBJ0023,4,2025-10-08,2025-10-08,109,109,1,DAYS,NAUSEA,NAUSEA,CARDIAC DISORDERS,MILD,N,CTCAE,N,Y,N,Y,N,N,RELATED,DRUG WITHDRAWN,NOT RECOVERED/NOT RESOLVED,1,Y,Treatment 1,1,"REQUIRES HOSPITALIZATION, RESULTS IN DISABILITY",Y,N,4
STUDY001,STUDY001-SUBJ0023,5,2025-12-07,,169,,,DAYS,FEVER,FEVER,GASTROINTESTINAL DISORDERS,SEVERE,Y,CTCAE,N,N,N,Y,N,N,NOT RELATED,DRUG WITHDRAWN,RECOVERED/RESOLVED,3,Y,Treatment 1,1,REQUIRES HOSPITALIZATION,N,Y,4
STUDY001,STUDY001-SUBJ0025,1,2026-01-06,2026-01-10,87,91,5,DAYS,NAUSEA,NAUSEA,NERVOUS SYSTEM DISORDERS,MODERATE,N,CTCAE,N,N,N,N,Y,N,NOT RELATED,NOT APPLICABLE,RECOVERING/RESOLVING,2,Y,Treatment 3,3,"LIFE THREATENING, MEDICALLY IMPORTANT EVENT",Y,N,39
STUDY001,STUDY001-SUBJ0025,2,2026-01-04,2026-01-13,85,94,10,DAYS,VOMITING,VOMITING,GASTROINTESTINAL DISORDERS,MODERATE,N,CTCAE,N,N,Y,Y,Y,N,NOT RELATED,DRUG INTERRUPTED,FATAL,2,Y,Treatment 3,3,"RESULTS IN DEATH, LIFE THREATENING, REQUIRES HOSPITALIZATION, MEDICALLY IMPORTANT EVENT",N,N,39
STUDY001,STUDY001-SUBJ0025,3,2026-01-04,2026-01-04,85,85,1,DAYS,DIARRHEA,DIARRHEA,GASTROINTESTINAL DISORDERS,MILD,N,CTCAE,N,Y,N,N,N,N,RELATED,DOSE REDUCED,NOT RECOVERED/NOT RESOLVED,1,Y,Treatment 3,3,"RESULTS IN DISABILITY, MEDICALLY IMPORTANT EVENT",Y,N,39
STUDY001,STUDY001-SUBJ0025,4,2026-01-09,2026-01-12,90,93,4,DAYS,RASH,RASH,NERVOUS SYSTEM DISORDERS,SEVERE,Y,CTCAE,N,Y,Y,Y,Y,N,RELATED,NOT APPLICABLE,FATAL,3,Y,Treatment 3,3,"RESULTS IN DEATH, LIFE THREATENING, REQUIRES HOSPITALIZATION, RESULTS IN DISABILITY",N,Y,39
STUDY001,STUDY001-SUBJ0025,5,2026-01-04,2026-01-13,85,94,10,DAYS,FATIGUE,FATIGUE,CARDIAC DISORDERS,MILD,N,CTCAE,N,N,N,Y,N,N,RELATED,DOSE REDUCED,RECOVERED/RESOLVED,1,Y,Treatment 3,3,REQUIRES HOSPITALIZATION,N,N,39
STUDY001,STUDY001-SUBJ0026,1,2025-12-31,2026-01-08,144,152,9,DAYS,INSOMNIA,INSOMNIA,NERVOUS SYSTEM DISORDERS,MODERATE,N,CTCAE,N,Y,N,Y,N,N,NOT RELATED,DRUG INTERRUPTED,RECOVERED/RESOLVED,2,Y,Treatment 1,1,"REQUIRES HOSPITALIZATION, RESULTS IN DISABILITY",N,N,25
STUDY001,STUDY001-SUBJ0026,2,2025-10-05,2025-10-16,57,68,12,DAYS,FATIGUE,FATIGUE,RESPIRATORY DISORDERS,MODERATE,N,CTCAE,N,N,N,Y,N,N,NOT RELATED,DOSE NOT CHANGED,RECOVERING/RESOLVING,2,Y,Treatment 1,1,REQUIRES HOSPITALIZATION,N,N,25
STUDY001,STUDY001-SUBJ0026,3,2025-11-21,2025-12-24,104,137,34,DAYS,FEVER,FEVER,CARDIAC DISORDERS,MILD,N,CTCAE,N,N,N,N,N,N,NOT RELATED,NOT APPLICABLE,RECOVERED/RESOLVED,1,Y,Treatment 1,1,,N,N,25
STUDY001,STUDY001-SUBJ0026,4,2025-11-20,,103,,,DAYS,DIARRHEA,DIARRHEA,NERVOUS SYSTEM DISORDERS,MODERATE,N,CTCAE,N,N,N,N,Y,N,NOT RELATED,NOT APPLICABLE,RECOVERED/RESOLVED,2,Y,Treatment 1,1,LIFE THREATENING,Y,N,25
STUDY001,STUDY001-SUBJ0027,1,2025-12-28,2026-01-07,166,176,11,DAYS,NAUSEA,NAUSEA,GASTROINTESTINAL DISORDERS,MODERATE,N,CTCAE,N,N,N,Y,Y,N,RELATED,DRUG INTERRUPTED,RECOVERING/RESOLVING,2,Y,Treatment 1,1,"LIFE THREATENING, REQUIRES HOSPITALIZATION, MEDICALLY IMPORTANT EVENT",Y,N,38
STUDY001,STUDY001-SUBJ0027,2,2025-12-01,,139,,,DAYS,HEADACHE,HEADACHE,CARDIAC DISORDERS,MODERATE,N,CTCAE,N,N,N,Y,Y,N,NOT RELATED,DRUG WITHDRAWN,RECOVERING/RESOLVING,2,Y,Treatment 1,1,"LIFE THREATENING, REQUIRES HOSPITALIZATION",Y,N,38
STUDY001,STUDY001-SUBJ0027,3,2025-11-30,2025-12-24,138,162,25,DAYS,VOMITING,VOMITING,RESPIRATORY DISORDERS,MODERATE,N,CTCAE,N,Y,N,Y,Y,N,NOT RELATED,DRUG INTERRUPTED,RECOVERING/RESOLVING,2,Y,Treatment 1,1,"LIFE THREATENING, REQUIRES HOSPITALIZATION, RESULTS IN DISABILITY",N,N,38
STUDY001,STUDY001-SUBJ0027,4,2025-12-04,2025-12-13,142,151,10,DAYS,INSOMNIA,INSOMNIA,RESPIRATORY DISORDERS,MILD,N,CTCAE,N,Y,N,Y,N,N,RELATED,DOSE NOT CHANGED,RECOVERED/RESOLVED,1,Y,Treatment 1,1,"REQUIRES HOSPITALIZATION, RESULTS IN DISABILITY, MEDICALLY IMPORTANT EVENT",N,N,38
STUDY001,STUDY001-SUBJ0028,1,2025-08-11,2025-10-05,-60,-5,56,DAYS,FEVER,FEVER,RESPIRATORY DISORDERS,MILD,N,CTCAE,N,Y,N,Y,N,N,NOT RELATED,DRUG INTERRUPTED,RECOVERED/RESOLVED,1,N,Treatment 3,3,"REQUIRES HOSPITALIZATION, RESULTS IN DISABILITY",N,N,1
STUDY001,STUDY001-SUBJ0028,2,2025-07-24,2025-10-18,-78,9,87,DAYS,NAUSEA,NAUSEA,GASTROINTESTINAL DISORDERS,MILD,N,CTCAE,N,N,Y,N,N,N,RELATED,DOSE REDUCED,FATAL,1,N,Treatment 3,3,"RESULTS IN DEATH, MEDICALLY IMPORTANT EVENT",Y,N,1
STUDY001,STUDY001-SUBJ0028,3,2025-06-18,2025-08-20,-114,-51,64,DAYS,FATIGUE,FATIGUE,NERVOUS SYSTEM DISORDERS,MILD,N,CTCAE,N,N,Y,Y,Y,N,NOT RELATED,DRUG WITHDRAWN,FATAL,1,N,Treatment 3,3,"RESULTS IN DEATH, LIFE THREATENING, REQUIRES HOSPITALIZATION",N,N,1
STUDY001,STUDY001-SUBJ0028,4,2025-07-16,2025-08-24,-86,-47,40,DAYS,FATIGUE,FATIGUE,GASTROINTESTINAL DISORDERS,MODERATE,N,CTCAE,N,N,Y,N,Y,N,RELATED,DRUG WITHDRAWN,FATAL,2,N,Treatment 3,3,"RESULTS IN DEATH, LIFE THREATENING, MEDICALLY IMPORTANT EVENT",N,N,1
STUDY001,STUDY001-SUBJ0028,5,2025-08-10,2025-11-01,-61,23,84,DAYS,DIZZINESS,DIZZINESS,CARDIAC DISORDERS,MILD,N,CTCAE,N,N,N,N,N,N,RELATED,DRUG WITHDRAWN,RECOVERED/RESOLVED,1,N,Treatment 3,3,,N,N,1
STUDY001,STUDY001-SUBJ0029,1,2025-12-11,,168,,,DAYS,HEADACHE,HEADACHE,RESPIRATORY DISORDERS,SEVERE,Y,CTCAE,N,N,Y,N,N,N,RELATED,DRUG INTERRUPTED,FATAL,3,Y,Treatment 3,3,"RESULTS IN DEATH, MEDICALLY IMPORTANT EVENT",Y,Y,37
STUDY001,STUDY001-SUBJ0029,2,2025-12-22,2026-01-09,179,197,19,DAYS,FATIGUE,FATIGUE,RESPIRATORY DISORDERS,MODERATE,N,CTCAE,N,N,Y,N,Y,N,NOT RELATED,DOSE REDUCED,FATAL,2,Y,Treatment 3,3,"RESULTS IN DEATH, LIFE THREATENING",N,N,37
STUDY001,STUDY001-SUBJ0029,3,2025-12-18,2025-12-23,175,180,6,DAYS,INSOMNIA,INSOMNIA,NERVOUS SYSTEM DISORDERS,SEVERE,Y,CTCAE,N,N,N,N,N,N,NOT RELATED,DRUG INTERRUPTED,RECOVERED/RESOLVED,3,Y,Treatment 3,3,,N,Y,37
STUDY001,STUDY001-SUBJ0029,4,2025-11-27,,154,,,DAYS,INSOMNIA,INSOMNIA,NERVOUS SYSTEM DISORDERS,MILD,N,CTCAE,N,N,N,N,Y,N,NOT RELATED,NOT APPLICABLE,NOT RECOVERED/NOT RESOLVED,1,Y,Treatment 3,3,LIFE THREATENING,N,N,37
STUDY001,STUDY001-SUBJ0029,5,2026-01-05,,193,,,DAYS,FEVER,FEVER,GASTROINTESTINAL DISORDERS,MILD,N,CTCAE,N,Y,N,N,N,N,NOT RELATED,DOSE REDUCED,NOT RECOVERED/NOT RESOLVED,1,Y,Treatment 3,3,"RESULTS IN DISABILITY, MEDICALLY IMPORTANT EVENT",N,N,37
STUDY001,STUDY001-SUBJ0030,1,2025-12-30,2026-01-05,239,245,7,DAYS,PAIN,PAIN,NERVOUS SYSTEM DISORDERS,MODERATE,N,CTCAE,N,N,Y,N,Y,N,NOT RELATED,DRUG INTERRUPTED,FATAL,2,Y,Treatment 1,1,"RESULTS IN DEATH, LIFE THREATENING",N,N,33
STUDY001,STUDY001-SUBJ0030,2,2026-01-02,,242,,,DAYS,INSOMNIA,INSOMNIA,GASTROINTESTINAL DISORDERS,SEVERE,Y,CTCAE,N,N,N,Y,Y,N,NOT RELATED,NOT APPLICABLE,NOT RECOVERED/NOT RESOLVED,3,Y,Treatment 1,1,"LIFE THREATENING, REQUIRES HOSPITALIZATION, MEDICALLY IMPORTANT EVENT",N,Y,33
STUDY001,STUDY001-SUBJ0030,3,2026-01-04,,244,,,DAYS,PAIN,PAIN,GASTROINTESTINAL DISORDERS,SEVERE,Y,CTCAE,N,Y,Y,Y,Y,N,RELATED,DOSE REDUCED,FATAL,3,Y,Treatment 1,1,"RESULTS IN DEATH, LIFE THREATENING, REQUIRES HOSPITALIZATION, RESULTS IN DISABILITY",N,Y,33
STUDY001,STUDY001-SUBJ0030,4,2025-12-30,2026-01-01,239,241,3,DAYS,VOMITING,VOMITING,GASTROINTESTINAL DISORDERS,SEVERE,Y,CTCAE,N,Y,Y,N,N,N,NOT RELATED,NOT APPLICABLE,FATAL,3,Y,Treatment 1,1,"RESULTS IN DEATH, RESULTS IN DISABILITY, MEDICALLY IMPORTANT EVENT",N,Y,33
STUDY001,STUDY001-SUBJ0031,1,2025-11-09,,52,,,DAYS,DIZZINESS,DIZZINESS,CARDIAC DISORDERS,MODERATE,N,CTCAE,N,N,Y,Y,N,N,NOT RELATED,DRUG WITHDRAWN,FATAL,2,Y,Treatment 2,2,"RESULTS IN DEATH, REQUIRES HOSPITALIZATION, MEDICALLY IMPORTANT EVENT",N,N,18
STUDY001,STUDY001-SUBJ0031,2,2025-10-15,2025-11-25,27,68,42,DAYS,DIARRHEA,DIARRHEA,RESPIRATORY DISORDERS,MODERATE,N,CTCAE,N,N,Y,Y,N,N,NOT RELATED,DOSE REDUCED,FATAL,2,Y,Treatment 2,2,"RESULTS IN DEATH, REQUIRES HOSPITALIZATION, MEDICALLY IMPORTANT EVENT",Y,N,18
STUDY001,STUDY001-SUBJ0031,3,2026-01-29,,133,,,DAYS,NAUSEA,NAUSEA,CARDIAC DISORDERS,MODERATE,N,CTCAE,N,Y,N,Y,N,N,NOT RELATED,NOT APPLICABLE,RECOVERING/RESOLVING,2,Y,Treatment 2,2,"REQUIRES HOSPITALIZATION, RESULTS IN DISABILITY, MEDICALLY IMPORTANT EVENT",Y,N,18
STUDY001,STUDY001-SUBJ0031,4,2025-12-17,2026-01-25,90,129,40,DAYS,PAIN,PAIN,CARDIAC DISORDERS,MILD,N,CTCAE,N,Y,Y,Y,N,N,NOT RELATED,DRUG WITHDRAWN,FATAL,1,Y,Treatment 2,2,"RESULTS IN DEATH, REQUIRES HOSPITALIZATION, RESULTS IN DISABILITY",N,N,18
STUDY001,STUDY001-SUBJ0032,1,2025-06-28,,-25,,,DAYS,NAUSEA,NAUSEA,RESPIRATORY DISORDERS,SEVERE,Y,CTCAE,N,N,Y,Y,Y,N,RELATED,NOT APPLICABLE,FATAL,3,N,Treatment 3,3,"RESULTS IN DEATH, LIFE THREATENING, REQUIRES HOSPITALIZATION",Y,Y,18
STUDY001,STUDY001-SUBJ0032,2,2025-08-12,,21,,,DAYS,DIARRHEA,DIARRHEA,NERVOUS SYSTEM DISORDERS,SEVERE,Y,CTCAE,N,N,N,Y,N,N,RELATED,DOSE NOT CHANGED,RECOVERED/RESOLVED,3,Y,Treatment 3,3,REQUIRES HOSPITALIZATION,Y,Y,18
STUDY001,STUDY001-SUBJ0032,3,2025-09-22,2025-11-11,62,112,51,DAYS,DIARRHEA,DIARRHEA,GASTROINTESTINAL DISORDERS,SEVERE,Y,CTCAE,N,N,Y,N,Y,N,NOT RELATED,DRUG WITHDRAWN,FATAL,3,Y,Treatment 3,3,"RESULTS IN DEATH, LIFE THREATENING, MEDICALLY IMPORTANT EVENT",Y,Y,18
STUDY001,STUDY001-SUBJ0032,4,2025-08-25,,34,,,DAYS,VOMITING,VOMITING,CARDIAC DISORDERS,SEVERE,Y,CTCAE,N,N,N,N,Y,N,RELATED,DOSE NOT CHANGED,RECOVERED/RESOLVED,3,Y,Treatment 3,3,LIFE THREATENING,N,Y,18
STUDY001,STUDY001-SUBJ0034,1,2025-12-03,2026-01-11,198,237,40,DAYS,HEADACHE,HEADACHE,NERVOUS SYSTEM DISORDERS,MILD,N,CTCAE,N,N,N,N,Y,N,RELATED,DRUG INTERRUPTED,RECOVERED/RESOLVED,1,Y,Treatment 3,3,LIFE THREATENING,Y,N,39
STUDY001,STUDY001-SUBJ0035,1,2026-01-16,2026-01-25,320,329,10,DAYS,FEVER,FEVER,RESPIRATORY DISORDERS,MODERATE,N,CTCAE,N,N,N,N,N,N,RELATED,DRUG INTERRUPTED,RECOVERING/RESOLVING,2,Y,Treatment 1,1,MEDICALLY IMPORTANT EVENT,N,N,47
STUDY001,STUDY001-SUBJ0035,2,2025-12-30,2026-01-21,303,325,23,DAYS,FEVER,FEVER,GASTROINTESTINAL DISORDERS,SEVERE,Y,CTCAE,N,N,N,N,N,N,RELATED,DRUG INTERRUPTED,RECOVERING/RESOLVING,3,Y,Treatment 1,1,MEDICALLY IMPORTANT EVENT,N,Y,47
STUDY001,STUDY001-SUBJ0035,3,2025-11-14,2025-11-29,257,272,16,DAYS,FEVER,FEVER,CARDIAC DISORDERS,MILD,N,CTCAE,N,Y,N,Y,N,N,RELATED,DRUG WITHDRAWN,RECOVERED/RESOLVED,1,Y,Treatment 1,1,"REQUIRES HOSPITALIZATION, RESULTS IN DISABILITY",N,N,47
STUDY001,STUDY001-SUBJ0036,1,2025-08-18,2025-10-29,118,190,73,DAYS,FATIGUE,FATIGUE,RESPIRATORY DISORDERS,SEVERE,Y,CTCAE,N,N,N,N,N,N,RELATED,NOT APPLICABLE,RECOVERING/RESOLVING,3,Y,Treatment 3,3,MEDICALLY IMPORTANT EVENT,N,Y,32
STUDY001,STUDY001-SUBJ0036,2,2025-08-19,2025-08-31,119,131,13,DAYS,DIARRHEA,DIARRHEA,GASTROINTESTINAL DISORDERS,MILD,N,CTCAE,N,Y,N,N,N,N,NOT RELATED,DOSE REDUCED,RECOVERING/RESOLVING,1,Y,Treatment 3,3,"RESULTS IN DISABILITY, MEDICALLY IMPORTANT EVENT",Y,N,32
STUDY001,STUDY001-SUBJ0036,3,2025-05-07,2025-08-21,15,121,107,DAYS,FATIGUE,FATIGUE,CARDIAC DISORDERS,SEVERE,Y,CTCAE,N,N,N,Y,N,N,NOT RELATED,NOT APPLICABLE,RECOVERING/RESOLVING,3,Y,Treatment 3,3,REQUIRES HOSPITALIZATION,N,Y,32
STUDY001,STUDY001-SUBJ0036,4,2025-09-30,,161,,,DAYS,HEADACHE,HEADACHE,NERVOUS SYSTEM DISORDERS,MODERATE,N,CTCAE,N,N,Y,N,Y,N,RELATED,NOT APPLICABLE,FATAL,2,Y,Treatment 3,3,"RESULTS IN DEATH, LIFE THREATENING, MEDICALLY IMPORTANT EVENT",Y,N,32
STUDY001,STUDY001-SUBJ0037,1,2025-08-08,2025-09-22,-22,24,46,DAYS,DIARRHEA,DIARRHEA,RESPIRATORY DISORDERS,SEVERE,Y,CTCAE,N,N,Y,N,Y,N,RELATED,DOSE NOT CHANGED,FATAL,3,N,Treatment 3,3,"RESULTS IN DEATH, LIFE THREATENING, MEDICALLY IMPORTANT EVENT",Y,Y,49
STUDY001,STUDY001-SUBJ0037,2,2025-07-27,,-34,,,DAYS,INSOMNIA,INSOMNIA,CARDIAC DISORDERS,MILD,N,CTCAE,N,Y,N,Y,N,N,NOT RELATED,DRUG INTERRUPTED,RECOVERING/RESOLVING,1,N,Treatment 3,3,"REQUIRES HOSPITALIZATION, RESULTS IN DISABILITY, MEDICALLY IMPORTANT EVENT",N,N,49
STUDY001,STUDY001-SUBJ0037,3,2025-11-19,2025-12-18,82,111,30,DAYS,VOMITING,VOMITING,CARDIAC DISORDERS,MILD,N,CTCAE,N,N,N,N,Y,N,NOT RELATED,DRUG WITHDRAWN,RECOVERING/RESOLVING,1,Y,Treatment 3,3,LIFE THREATENING,N,N,49
STUDY001,STUDY001-SUBJ0037,4,2025-10-21,2025-12-21,53,114,62,DAYS,RASH,RASH,NERVOUS SYSTEM DISORDERS,SEVERE,Y,CTCAE,N,N,Y,Y,N,N,RELATED,NOT APPLICABLE,FATAL,3,Y,Treatment 3,3,"RESULTS IN DEATH, REQUIRES HOSPITALIZATION, MEDICALLY IMPORTANT EVENT",N,Y,49
STUDY001,STUDY001-SUBJ0037,5,2025-12-25,2026-01-23,118,147,30,DAYS,HEADACHE,HEADACHE,GASTROINTESTINAL DISORDERS,MODERATE,N,CTCAE,N,Y,N,Y,N,N,NOT RELATED,NOT APPLICABLE,NOT RECOVERED/NOT RESOLVED,2,Y,Treatment 3,3,"REQUIRES HOSPITALIZATION, RESULTS IN DISABILITY",Y,N,49
STUDY001,STUDY001-SUBJ0038,1,2025-06-13,,7,,,DAYS,COUGH,COUGH,RESPIRATORY DISORDERS,MILD,N,CTCAE,N,Y,Y,Y,Y,N,NOT RELATED,NOT APPLICABLE,FATAL,1,Y,Treatment 2,2,"RESULTS IN DEATH, LIFE THREATENING, REQUIRES HOSPITALIZATION, RESULTS IN DISABILITY, MEDICALLY IMPORTANT EVENT",N,N,8
STUDY001,STUDY001-SUBJ0038,2,2025-10-27,2025-11-24,143,171,29,DAYS,VOMITING,VOMITING,CARDIAC DISORDERS,SEVERE,Y,CTCAE,N,Y,N,Y,N,N,RELATED,DOSE REDUCED,NOT RECOVERED/NOT RESOLVED,3,Y,Treatment 2,2,"REQUIRES HOSPITALIZATION, RESULTS IN DISABILITY, MEDICALLY IMPORTANT EVENT",N,Y,8
STUDY001,STUDY001-SUBJ0038,3,2025-06-04,2025-10-31,-3,147,150,DAYS,FEVER,FEVER,CARDIAC DISORDERS,MODERATE,N,CTCAE,N,Y,N,Y,Y,N,RELATED,NOT APPLICABLE,RECOVERING/RESOLVING,2,N,Treatment 2,2,"LIFE THREATENING, REQUIRES HOSPITALIZATION, RESULTS IN DISABILITY",N,N,8
STUDY001,STUDY001-SUBJ0039,1,2025-08-19,2025-10-20,90,152,63,DAYS,FEVER,FEVER,RESPIRATORY DISORDERS,MILD,N,CTCAE,N,N,Y,N,Y,N,RELATED,DOSE REDUCED,FATAL,1,Y,Treatment 3,3,"RESULTS IN DEATH, LIFE THREATENING",N,N,24
STUDY001,STUDY001-SUBJ0039,2,2025-10-22,2025-12-05,154,198,45,DAYS,COUGH,COUGH,RESPIRATORY DISORDERS,SEVERE,Y,CTCAE,N,Y,N,Y,N,N,RELATED,DRUG INTERRUPTED,RECOVERING/RESOLVING,3,Y,Treatment 3,3,"REQUIRES HOSPITALIZATION, RESULTS IN DISABILITY",N,Y,24
STUDY001,STUDY001-SUBJ0039,3,2025-12-05,2025-12-24,198,217,20,DAYS,PAIN,PAIN,GASTROINTESTINAL DISORDERS,MODERATE,N,CTCAE,N,N,N,N,N,N,NOT RELATED,DOSE REDUCED,NOT RECOVERED/NOT RESOLVED,2,Y,Treatment 3,3,,N,N,24
STUDY001,STUDY001-SUBJ0039,4,2025-11-20,,183,,,DAYS,FATIGUE,FATIGUE,CARDIAC DISORDERS,SEVERE,Y,CTCAE,N,Y,N,N,Y,N,RELATED,DRUG WITHDRAWN,NOT RECOVERED/NOT RESOLVED,3,Y,Treatment 3,3,"LIFE THREATENING, RESULTS IN DISABILITY",N,Y,24
STUDY001,STUDY001-SUBJ0040,1,2026-01-23,2026-01-23,114,114,1,DAYS,NAUSEA,NAUSEA,GASTROINTESTINAL DISORDERS,SEVERE,Y,CTCAE,N,N,N,N,Y,N,RELATED,DRUG INTERRUPTED,NOT RECOVERED/NOT RESOLVED,3,Y,Treatment 1,1,LIFE THREATENING,Y,Y,23
STUDY001,STUDY001-SUBJ0040,2,2025-12-18,,78,,,DAYS,PAIN,PAIN,NERVOUS SYSTEM DISORDERS,SEVERE,Y,CTCAE,N,Y,N,Y,N,N,RELATED,DRUG INTERRUPTED,RECOVERING/RESOLVING,3,Y,Treatment 1,1,"REQUIRES HOSPITALIZATION, RESULTS IN DISABILITY, MEDICALLY IMPORTANT EVENT",N,Y,23
STUDY001,STUDY001-SUBJ0042,1,2026-01-04,,324,,,DAYS,VOMITING,VOMITING,RESPIRATORY DISORDERS,MODERATE,N,CTCAE,N,Y,N,Y,N,N,NOT RELATED,DRUG INTERRUPTED,NOT RECOVERED/NOT RESOLVED,2,Y,Treatment 3,3,"REQUIRES HOSPITALIZATION, RESULTS IN DISABILITY",N,N,26
STUDY001,STUDY001-SUBJ0044,1,2025-10-18,2025-10-19,-54,-53,2,DAYS,PAIN,PAIN,NERVOUS SYSTEM DISORDERS,MILD,N,CTCAE,N,Y,N,Y,N,N,NOT RELATED,NOT APPLICABLE,NOT RECOVERED/NOT RESOLVED,1,N,Treatment 1,1,"REQUIRES HOSPITALIZATION, RESULTS IN DISABILITY",N,N,30
STUDY001,STUDY001-SUBJ0045,1,2025-10-30,2025-12-29,168,228,61,DAYS,FATIGUE,FATIGUE,CARDIAC DISORDERS,MILD,N,CTCAE,N,Y,N,N,N,N,RELATED,DOSE REDUCED,NOT RECOVERED/NOT RESOLVED,1,Y,Treatment 1,1,RESULTS IN DISABILITY,N,N,50
STUDY001,STUDY001-SUBJ0046,1,2025-10-01,,130,,,DAYS,VOMITING,VOMITING,RESPIRATORY DISORDERS,SEVERE,Y,CTCAE,N,N,N,N,N,N,RELATED,DRUG WITHDRAWN,NOT RECOVERED/NOT RESOLVED,3,Y,Treatment 1,1,,N,Y,30
STUDY001,STUDY001-SUBJ0046,2,2025-09-07,,106,,,DAYS,COUGH,COUGH,RESPIRATORY DISORDERS,MILD,N,CTCAE,N,Y,N,N,Y,N,NOT RELATED,DOSE REDUCED,NOT RECOVERED/NOT RESOLVED,1,Y,Treatment 1,1,"LIFE THREATENING, RESULTS IN DISABILITY",N,N,30
STUDY001,STUDY001-SUBJ0047,1,2025-12-18,2026-01-02,21,36,16,DAYS,COUGH,COUGH,GASTROINTESTINAL DISORDERS,SEVERE,Y,CTCAE,N,N,N,N,N,N,NOT RELATED,DOSE REDUCED,RECOVERED/RESOLVED,3,Y,Treatment 2,2,,N,Y,12
STUDY001,STUDY001-SUBJ0047,2,2025-11-27,,-1,,,DAYS,VOMITING,VOMITING,GASTROINTESTINAL DISORDERS,MILD,N,CTCAE,N,N,Y,Y,N,N,RELATED,DRUG WITHDRAWN,FATAL,1,N,Treatment 2,2,"RESULTS IN DEATH, REQUIRES HOSPITALIZATION",N,N,12
STUDY001,STUDY001-SUBJ0047,3,2025-12-10,2026-01-08,13,42,30,DAYS,COUGH,COUGH,CARDIAC DISORDERS,MILD,N,CTCAE,N,N,Y,N,Y,N,RELATED,DOSE NOT CHANGED,FATAL,1,Y,Treatment 2,2,"RESULTS IN DEATH, LIFE THREATENING",N,N,12
STUDY001,STUDY001-SUBJ0048,1,2025-08-06,2025-09-28,19,72,54,DAYS,INSOMNIA,INSOMNIA,CARDIAC DISORDERS,MODERATE,N,CTCAE,N,N,N,Y,N,N,NOT RELATED,DOSE NOT CHANGED,RECOVERING/RESOLVING,2,Y,Treatment 2,2,REQUIRES HOSPITALIZATION,N,N,7
STUDY001,STUDY001-SUBJ0048,2,2025-06-21,2025-10-31,-28,105,133,DAYS,INSOMNIA,INSOMNIA,CARDIAC DISORDERS,MODERATE,N,CTCAE,N,N,N,N,Y,N,RELATED,DOSE REDUCED,RECOVERING/RESOLVING,2,N,Treatment 2,2,LIFE THREATENING,N,N,7
STUDY001,STUDY001-SUBJ0048,3,2025-06-20,2025-12-27,-29,162,191,DAYS,HEADACHE,HEADACHE,GASTROINTESTINAL DISORDERS,SEVERE,Y,CTCAE,N,N,N,N,N,N,RELATED,DOSE REDUCED,RECOVERED/RESOLVED,3,N,Treatment 2,2,,Y,Y,7
STUDY001,STUDY001-SUBJ0049,1,2025-12-10,,13,,,DAYS,DIARRHEA,DIARRHEA,GASTROINTESTINAL DISORDERS,MODERATE,N,CTCAE,N,N,N,Y,N,N,RELATED,NOT APPLICABLE,NOT RECOVERED/NOT RESOLVED,2,Y,Treatment 3,3,"REQUIRES HOSPITALIZATION, MEDICALLY IMPORTANT EVENT",Y,N,40
STUDY001,STUDY001-SUBJ0050,1,2025-12-23,2026-01-06,283,297,15,DAYS,VOMITING,VOMITING,CARDIAC DISORDERS,SEVERE,Y,CTCAE,N,N,N,N,Y,N,NOT RELATED,DOSE NOT CHANGED,RECOVERING/RESOLVING,3,Y,Treatment 3,3,"LIFE THREATENING, MEDICALLY IMPORTANT EVENT",N,Y,36
STUDY001,STUDY001-SUBJ0050,2,2026-01-04,2026-01-06,295,297,3,DAYS,INSOMNIA,INSOMNIA,NERVOUS SYSTEM DISORDERS,MILD,N,CTCAE,N,N,N,Y,Y,N,RELATED,DRUG INTERRUPTED,RECOVERING/RESOLVING,1,Y,Treatment 3,3,"LIFE THREATENING, REQUIRES HOSPITALIZATION",N,N,36
STUDY001,STUDY001-SUBJ0050,3,2025-12-31,2026-01-10,291,301,11,DAYS,RASH,RASH,RESPIRATORY DISORDERS,MODERATE,N,CTCAE,N,Y,Y,N,N,N,RELATED,NOT APPLICABLE,FATAL,2,Y,Treatment 3,3,"RESULTS IN DEATH, RESULTS IN DISABILITY",N,N,36
STUDY001,STUDY001-SUBJ0051,1,2025-10-16,2026-01-05,-75,7,82,DAYS,DIZZINESS,DIZZINESS,CARDIAC DISORDERS,MILD,N,CTCAE,N,Y,N,Y,N,N,RELATED,DRUG INTERRUPTED,NOT RECOVERED/NOT RESOLVED,1,N,Treatment 2,2,"REQUIRES HOSPITALIZATION, RESULTS IN DISABILITY",N,N,15
STUDY001,STUDY001-SUBJ0051,2,2025-09-18,2025-11-21,-103,-39,65,DAYS,RASH,RASH,GASTROINTESTINAL DISORDERS,SEVERE,Y,CTCAE,N,Y,Y,N,N,N,NOT RELATED,NOT APPLICABLE,FATAL,3,N,Treatment 2,2,"RESULTS IN DEATH, RESULTS IN DISABILITY, MEDICALLY IMPORTANT EVENT",N,Y,15
STUDY001,STUDY001-SUBJ0051,3,2026-01-02,,4,,,DAYS,PAIN,PAIN,GASTROINTESTINAL DISORDERS,MODERATE,N,CTCAE,N,N,N,N,Y,N,RELATED,DRUG INTERRUPTED,NOT RECOVERED/NOT RESOLVED,2,Y,Treatment 2,2,"LIFE THREATENING, MEDICALLY IMPORTANT EVENT",N,N,15
STUDY001,STUDY001-SUBJ0051,4,2025-08-18,2026-01-05,-134,7,141,DAYS,COUGH,COUGH,RESPIRATORY DISORDERS,MILD,N,CTCAE,N,Y,N,N,N,N,RELATED,DOSE REDUCED,RECOVERING/RESOLVING,1,N,Treatment 2,2,RESULTS IN DISABILITY,N,N,15
STUDY001,STUDY001-SUBJ0052,1,2025-12-05,2025-12-11,-30,-24,7,DAYS,FEVER,FEVER,CARDIAC DISORDERS,MILD,N,CTCAE,N,Y,Y,N,N,N,RELATED,NOT APPLICABLE,FATAL,1,N,Treatment 3,3,"RESULTS IN DEATH, RESULTS IN DISABILITY, MEDICALLY IMPORTANT EVENT",N,N,19
STUDY001,STUDY001-SUBJ0052,2,2026-01-03,,-1,,,DAYS,VOMITING,VOMITING,CARDIAC DISORDERS,MODERATE,N,CTCAE,N,N,Y,N,Y,N,RELATED,DOSE NOT CHANGED,FATAL,2,N,Treatment 3,3,"RESULTS IN DEATH, LIFE THREATENING",N,N,19
STUDY001,STUDY001-SUBJ0052,3,2025-12-12,,-23,,,DAYS,PAIN,PAIN,RESPIRATORY DISORDERS,MODERATE,N,CTCAE,N,Y,N,N,Y,N,NOT RELATED,DRUG WITHDRAWN,RECOVERING/RESOLVING,2,N,Treatment 3,3,"LIFE THREATENING, RESULTS IN DISABILITY, MEDICALLY IMPORTANT EVENT",N,N,19
STUDY001,STUDY001-SUBJ0052,4,2025-12-30,2025-12-30,-5,-5,1,DAYS,VOMITING,VOMITING,RESPIRATORY DISORDERS,MILD,N,CTCAE,N,Y,N,Y,Y,N,RELATED,DRUG WITHDRAWN,RECOVERED/RESOLVED,1,N,Treatment 3,3,"LIFE THREATENING, REQUIRES HOSPITALIZATION, RESULTS IN DISABILITY",N,N,19
STUDY001,STUDY001-SUBJ0052,5,2025-11-30,,-35,,,DAYS,DIARRHEA,DIARRHEA,GASTROINTESTINAL DISORDERS,MILD,N,CTCAE,N,Y,N,N,Y,N,RELATED,DOSE NOT CHANGED,NOT RECOVERED/NOT RESOLVED,1,N,Treatment 3,3,"LIFE THREATENING, RESULTS IN DISABILITY, MEDICALLY IMPORTANT EVENT",Y,N,19
STUDY001,STUDY001-SUBJ0054,1,2026-01-23,2026-01-25,174,176,3,DAYS,INSOMNIA,INSOMNIA,NERVOUS SYSTEM DISORDERS,MILD,N,CTCAE,N,Y,N,N,N,N,RELATED,DOSE REDUCED,RECOVERING/RESOLVING,1,Y,Treatment 1,1,RESULTS IN DISABILITY,N,N,36
STUDY001,STUDY001-SUBJ0054,2,2025-08-05,2025-08-28,3,26,24,DAYS,DIZZINESS,DIZZINESS,GASTROINTESTINAL DISORDERS,SEVERE,Y,CTCAE,N,N,Y,Y,Y,N,NOT RELATED,DRUG WITHDRAWN,FATAL,3,Y,Treatment 1,1,"RESULTS IN DEATH, LIFE THREATENING, REQUIRES HOSPITALIZATION",N,Y,36
STUDY001,STUDY001-SUBJ0055,1,2025-12-31,2026-01-15,154,169,16,DAYS,INSOMNIA,INSOMNIA,CARDIAC DISORDERS,MILD,N,CTCAE,N,Y,N,Y,Y,N,NOT RELATED,DRUG WITHDRAWN,RECOVERED/RESOLVED,1,Y,Treatment 1,1,"LIFE THREATENING, REQUIRES HOSPITALIZATION, RESULTS IN DISABILITY, MEDICALLY IMPORTANT EVENT",N,N,32
STUDY001,STUDY001-SUBJ0056,1,2025-12-03,,159,,,DAYS,PAIN,PAIN,GASTROINTESTINAL DISORDERS,MODERATE,N,CTCAE,N,Y,Y,N,Y,N,RELATED,DRUG INTERRUPTED,FATAL,2,Y,Treatment 2,2,"RESULTS IN DEATH, LIFE THREATENING, RESULTS IN DISABILITY",N,N,35
STUDY001,STUDY001-SUBJ0056,2,2025-12-26,2026-01-02,182,189,8,DAYS,INSOMNIA,INSOMNIA,RESPIRATORY DISORDERS,MODERATE,N,CTCAE,N,Y,N,N,Y,N,RELATED,DRUG WITHDRAWN,RECOVERED/RESOLVED,2,Y,Treatment 2,2,"LIFE THREATENING, RESULTS IN DISABILITY, MEDICALLY IMPORTANT EVENT",N,N,35
STUDY001,STUDY001-SUBJ0056,3,2026-01-01,2026-01-03,188,190,3,DAYS,HEADACHE,HEADACHE,GASTROINTESTINAL DISORDERS,MILD,N,CTCAE,N,N,N,N,N,N,RELATED,NOT APPLICABLE,RECOVERING/RESOLVING,1,Y,Treatment 2,2,,Y,N,35
STUDY001,STUDY001-SUBJ0056,4,2025-12-07,2026-01-02,163,189,27,DAYS,FEVER,FEVER,CARDIAC DISORDERS,MODERATE,N,CTCAE,N,N,Y,Y,Y,N,NOT RELATED,DRUG WITHDRAWN,FATAL,2,Y,Treatment 2,2,"RESULTS IN DEATH, LIFE THREATENING, REQUIRES HOSPITALIZATION, MEDICALLY IMPORTANT EVENT",N,N,35
STUDY001,STUDY001-SUBJ0057,1,2025-03-11,2025-07-02,20,133,114,DAYS,VOMITING,VOMITING,GASTROINTESTINAL DISORDERS,MILD,N,CTCAE,N,Y,N,Y,Y,N,RELATED,NOT APPLICABLE,NOT RECOVERED/NOT RESOLVED,1,Y,Treatment 2,2,"LIFE THREATENING, REQUIRES HOSPITALIZATION, RESULTS IN DISABILITY",N,N,8
STUDY001,STUDY001-SUBJ0058,1,2026-01-06,2026-01-06,101,101,1,DAYS,FATIGUE,FATIGUE,NERVOUS SYSTEM DISORDERS,SEVERE,Y,CTCAE,N,N,N,N,N,N,NOT RELATED,DRUG INTERRUPTED,NOT RECOVERED/NOT RESOLVED,3,Y,Treatment 2,2,,N,Y,3
STUDY001,STUDY001-SUBJ0058,2,2025-12-28,,92,,,DAYS,HEADACHE,HEADACHE,CARDIAC DISORDERS,MODERATE,N,CTCAE,N,N,Y,Y,Y,N,RELATED,DRUG INTERRUPTED,FATAL,2,Y,Treatment 2,2,"RESULTS IN DEATH, LIFE THREATENING, REQUIRES HOSPITALIZATION, MEDICALLY IMPORTANT EVENT",Y,N,3
STUDY001,STUDY001-SUBJ0058,3,2025-12-15,2026-01-03,79,98,20,DAYS,PAIN,PAIN,CARDIAC DISORDERS,MILD,N,CTCAE,N,N,N,Y,Y,N,NOT RELATED,DOSE NOT CHANGED,NOT RECOVERED/NOT RESOLVED,1,Y,Treatment 2,2,"LIFE THREATENING, REQUIRES HOSPITALIZATION",N,N,3
STUDY001,STUDY001-SUBJ0058,4,2026-01-11,,106,,,DAYS,DIARRHEA,DIARRHEA,RESPIRATORY DISORDERS,MILD,N,CTCAE,N,Y,Y,Y,Y,N,NOT RELATED,DOSE NOT CHANGED,FATAL,1,Y,Treatment 2,2,"RESULTS IN DEATH, LIFE THREATENING, REQUIRES HOSPITALIZATION, RESULTS IN DISABILITY, MEDICALLY IMPORTANT EVENT",Y,N,3
STUDY001,STUDY001-SUBJ0059,1,2025-05-07,2025-07-11,-234,-169,66,DAYS,HEADACHE,HEADACHE,RESPIRATORY DISORDERS,MODERATE,N,CTCAE,N,N,N,N,Y,N,RELATED,NOT APPLICABLE,RECOVERED/RESOLVED,2,N,Treatment 2,2,"LIFE THREATENING, MEDICALLY IMPORTANT EVENT",Y,N,42
STUDY001,STUDY001-SUBJ0059,2,2025-09-24,2025-10-07,-94,-81,14,DAYS,DIZZINESS,DIZZINESS,CARDIAC DISORDERS,SEVERE,Y,CTCAE,N,N,Y,Y,N,N,NOT RELATED,DOSE REDUCED,FATAL,3,N,Treatment 2,2,"RESULTS IN DEATH, REQUIRES HOSPITALIZATION",N,Y,42
STUDY001,STUDY001-SUBJ0059,3,2025-07-17,,-163,,,DAYS,INSOMNIA,INSOMNIA,RESPIRATORY DISORDERS,MODERATE,N,CTCAE,N,N,N,Y,N,N,NOT RELATED,DRUG INTERRUPTED,RECOVERING/RESOLVING,2,N,Treatment 2,2,REQUIRES HOSPITALIZATION,N,N,42
STUDY001,STUDY001-SUBJ0059,4,2025-05-27,2025-08-03,-214,-146,69,DAYS,VOMITING,VOMITING,CARDIAC DISORDERS,MODERATE,N,CTCAE,N,Y,N,N,Y,N,RELATED,DOSE REDUCED,RECOVERED/RESOLVED,2,N,Treatment 2,2,"LIFE THREATENING, RESULTS IN DISABILITY",N,N,42
STUDY001,STUDY001-SUBJ0061,1,2025-12-13,2026-01-11,214,243,30,DAYS,FEVER,FEVER,RESPIRATORY DISORDERS,MILD,N,CTCAE,N,Y,Y,N,N,N,NOT RELATED,DOSE NOT CHANGED,FATAL,1,Y,Treatment 1,1,"RESULTS IN DEATH, RESULTS IN DISABILITY",N,N,12
STUDY001,STUDY001-SUBJ0061,2,2025-06-28,2025-07-17,46,65,20,DAYS,HEADACHE,HEADACHE,RESPIRATORY DISORDERS,MODERATE,N,CTCAE,N,N,N,Y,N,N,NOT RELATED,DRUG INTERRUPTED,RECOVERED/RESOLVED,2,Y,Treatment 1,1,REQUIRES HOSPITALIZATION,Y,N,12
STUDY001,STUDY001-SUBJ0061,3,2025-04-26,,-18,,,DAYS,HEADACHE,HEADACHE,NERVOUS SYSTEM DISORDERS,SEVERE,Y,CTCAE,N,Y,N,N,Y,N,NOT RELATED,NOT APPLICABLE,RECOVERED/RESOLVED,3,N,Treatment 1,1,"LIFE THREATENING, RESULTS IN DISABILITY",Y,Y,12
STUDY001,STUDY001-SUBJ0063,1,2025-12-23,2025-12-25,136,138,3,DAYS,VOMITING,VOMITING,RESPIRATORY DISORDERS,MILD,N,CTCAE,N,Y,N,N,Y,N,NOT RELATED,DRUG INTERRUPTED,NOT RECOVERED/NOT RESOLVED,1,Y,Treatment 1,1,"LIFE THREATENING, RESULTS IN DISABILITY",N,N,50
STUDY001,STUDY001-SUBJ0063,2,2025-12-27,,140,,,DAYS,RASH,RASH,GASTROINTESTINAL DISORDERS,MILD,N,CTCAE,N,N,N,N,N,N,NOT RELATED,DRUG WITHDRAWN,RECOVERED/RESOLVED,1,Y,Treatment 1,1,,N,N,50
STUDY001,STUDY001-SUBJ0063,3,2025-10-09,,61,,,DAYS,PAIN,PAIN,RESPIRATORY DISORDERS,MILD,N,CTCAE,N,Y,Y,Y,N,N,NOT RELATED,DRUG WITHDRAWN,FATAL,1,Y,Treatment 1,1,"RESULTS IN DEATH, REQUIRES HOSPITALIZATION, RESULTS IN DISABILITY",N,N,50
STUDY001,STUDY001-SUBJ0063,4,2025-11-28,2026-01-22,111,166,56,DAYS,PAIN,PAIN,GASTROINTESTINAL DISORDERS,SEVERE,Y,CTCAE,N,Y,N,N,N,N,RELATED,NOT APPLICABLE,RECOVERED/RESOLVED,3,Y,Treatment 1,1,"RESULTS IN DISABILITY, MEDICALLY IMPORTANT EVENT",N,Y,50
STUDY001,STUDY001-SUBJ0064,1,2025-03-12,2025-12-05,23,291,269,DAYS,DIARRHEA,DIARRHEA,CARDIAC DISORDERS,MODERATE,N,CTCAE,N,N,N,Y,N,N,RELATED,DRUG INTERRUPTED,NOT RECOVERED/NOT RESOLVED,2,Y,Treatment 1,1,"REQUIRES HOSPITALIZATION, MEDICALLY IMPORTANT EVENT",Y,N,37
STUDY001,STUDY001-SUBJ0064,2,2025-05-05,2026-01-13,77,330,254,DAYS,INSOMNIA,INSOMNIA,CARDIAC DISORDERS,SEVERE,Y,CTCAE,N,N,N,Y,N,N,NOT RELATED,DOSE NOT CHANGED,RECOVERED/RESOLVED,3,Y,Treatment 1,1,"REQUIRES HOSPITALIZATION, MEDICALLY IMPORTANT EVENT",N,Y,37
STUDY001,STUDY001-SUBJ0064,3,2025-04-12,2025-07-01,54,134,81,DAYS,VOMITING,VOMITING,GASTROINTESTINAL DISORDERS,SEVERE,Y,CTCAE,N,Y,N,Y,N,N,NOT RELATED,DRUG WITHDRAWN,RECOVERED/RESOLVED,3,Y,Treatment 1,1,"REQUIRES HOSPITALIZATION, RESULTS IN DISABILITY",N,Y,37
STUDY001,STUDY001-SUBJ0064,4,2025-05-02,2025-05-07,74,79,6,DAYS,NAUSEA,NAUSEA,CARDIAC DISORDERS,MODERATE,N,CTCAE,N,Y,N,Y,N,N,RELATED,NOT APPLICABLE,NOT RECOVERED/NOT RESOLVED,2,Y,Treatment 1,1,"REQUIRES HOSPITALIZATION, RESULTS IN DISABILITY, MEDICALLY IMPORTANT EVENT",Y,N,37
STUDY001,STUDY001-SUBJ0064,5,2025-06-05,2025-09-30,108,225,118,DAYS,HEADACHE,HEADACHE,GASTROINTESTINAL DISORDERS,SEVERE,Y,CTCAE,N,N,N,N,N,N,NOT RELATED,DRUG INTERRUPTED,RECOVERING/RESOLVING,3,Y,Treatment 1,1,,Y,Y,37
STUDY001,STUDY001-SUBJ0065,1,2025-12-12,,11,,,DAYS,FEVER,FEVER,NERVOUS SYSTEM DISORDERS,SEVERE,Y,CTCAE,N,N,N,N,Y,N,NOT RELATED,DRUG INTERRUPTED,NOT RECOVERED/NOT RESOLVED,3,Y,Treatment 2,2,LIFE THREATENING,N,Y,19
STUDY001,STUDY001-SUBJ0065,2,2025-12-21,2025-12-30,20,29,10,DAYS,DIZZINESS,DIZZINESS,RESPIRATORY DISORDERS,MILD,N,CTCAE,N,Y,N,Y,Y,N,RELATED,DRUG WITHDRAWN,RECOVERED/RESOLVED,1,Y,Treatment 2,2,"LIFE THREATENING, REQUIRES HOSPITALIZATION, RESULTS IN DISABILITY, MEDICALLY IMPORTANT EVENT",N,N,19
STUDY001,STUDY001-SUBJ0065,3,2025-12-18,2025-12-26,17,25,9,DAYS,DIZZINESS,DIZZINESS,CARDIAC DISORDERS,MILD,N,CTCAE,N,N,Y,Y,Y,N,NOT RELATED,DOSE REDUCED,FATAL,1,Y,Treatment 2,2,"RESULTS IN DEATH, LIFE THREATENING, REQUIRES HOSPITALIZATION, MEDICALLY IMPORTANT EVENT",N,N,19
STUDY001,STUDY001-SUBJ0065,4,2025-12-15,2025-12-22,14,21,8,DAYS,INSOMNIA,INSOMNIA,GASTROINTESTINAL DISORDERS,MILD,N,CTCAE,N,Y,N,Y,Y,N,RELATED,NOT APPLICABLE,RECOVERED/RESOLVED,1,Y,Treatment 2,2,"LIFE THREATENING, REQUIRES HOSPITALIZATION, RESULTS IN DISABILITY",N,N,19
STUDY001,STUDY001-SUBJ0066,1,2025-08-24,2025-12-18,-11,106,117,DAYS,DIZZINESS,DIZZINESS,CARDIAC DISORDERS,MILD,N,CTCAE,N,Y,N,N,N,N,NOT RELATED,NOT APPLICABLE,NOT RECOVERED/NOT RESOLVED,1,N,Treatment 3,3,"RESULTS IN DISABILITY, MEDICALLY IMPORTANT EVENT",N,N,42
STUDY001,STUDY001-SUBJ0066,2,2025-06-13,,-83,,,DAYS,COUGH,COUGH,NERVOUS SYSTEM DISORDERS,MILD,N,CTCAE,N,Y,N,Y,Y,N,RELATED,DOSE NOT CHANGED,NOT RECOVERED/NOT RESOLVED,1,N,Treatment 3,3,"LIFE THREATENING, REQUIRES HOSPITALIZATION, RESULTS IN DISABILITY, MEDICALLY IMPORTANT EVENT",N,N,42
STUDY001,STUDY001-SUBJ0066,3,2025-10-23,2025-10-26,50,53,4,DAYS,PAIN,PAIN,GASTROINTESTINAL DISORDERS,MILD,N,CTCAE,N,N,Y,Y,N,N,NOT RELATED,DOSE REDUCED,FATAL,1,Y,Treatment 3,3,"RESULTS IN DEATH, REQUIRES HOSPITALIZATION",N,N,42
STUDY001,STUDY001-SUBJ0066,4,2025-06-09,2025-11-27,-87,85,172,DAYS,PAIN,PAIN,GASTROINTESTINAL DISORDERS,MILD,N,CTCAE,N,Y,N,Y,Y,N,NOT RELATED,NOT APPLICABLE,RECOVERING/RESOLVING,1,N,Treatment 3,3,"LIFE THREATENING, REQUIRES HOSPITALIZATION, RESULTS IN DISABILITY",N,N,42
STUDY001,STUDY001-SUBJ0066,5,2025-12-21,,109,,,DAYS,COUGH,COUGH,CARDIAC DISORDERS,MODERATE,N,CTCAE,N,Y,N,N,N,N,RELATED,NOT APPLICABLE,RECOVERING/RESOLVING,2,Y,Treatment 3,3,RESULTS IN DISABILITY,N,N,42
STUDY001,STUDY001-SUBJ0067,1,2025-08-17,2025-09-25,162,201,40,DAYS,HEADACHE,HEADACHE,NERVOUS SYSTEM DISORDERS,MILD,N,CTCAE,N,Y,N,Y,N,N,RELATED,DRUG INTERRUPTED,RECOVERING/RESOLVING,1,Y,Treatment 3,3,"REQUIRES HOSPITALIZATION, RESULTS IN DISABILITY, MEDICALLY IMPORTANT EVENT",Y,N,35
STUDY001,STUDY001-SUBJ0067,2,2025-05-21,,74,,,DAYS,RASH,RASH,CARDIAC DISORDERS,MILD,N,CTCAE,N,N,N,Y,N,N,NOT RELATED,DOSE REDUCED,RECOVERED/RESOLVED,1,Y,Treatment 3,3,"REQUIRES HOSPITALIZATION, MEDICALLY IMPORTANT EVENT",N,N,35
STUDY001,STUDY001-SUBJ0067,3,2025-07-14,,128,,,DAYS,DIARRHEA,DIARRHEA,RESPIRATORY DISORDERS,MILD,N,CTCAE,N,N,N,N,N,N,RELATED,DOSE REDUCED,RECOVERING/RESOLVING,1,Y,Treatment 3,3,,Y,N,35
STUDY001,STUDY001-SUBJ0067,4,2025-11-12,2025-12-07,249,274,26,DAYS,DIARRHEA,DIARRHEA,CARDIAC DISORDERS,SEVERE,Y,CTCAE,N,Y,N,N,N,N,RELATED,DRUG WITHDRAWN,RECOVERING/RESOLVING,3,Y,Treatment 3,3,"RESULTS IN DISABILITY, MEDICALLY IMPORTANT EVENT",Y,Y,35
STUDY001,STUDY001-SUBJ0068,1,2025-11-03,2025-11-27,234,258,25,DAYS,FEVER,FEVER,NERVOUS SYSTEM DISORDERS,MODERATE,N,CTCAE,N,Y,N,Y,N,N,RELATED,NOT APPLICABLE,NOT RECOVERED/NOT RESOLVED,2,Y,Treatment 3,3,"REQUIRES HOSPITALIZATION, RESULTS IN DISABILITY, MEDICALLY IMPORTANT EVENT",N,N,4
STUDY001,STUDY001-SUBJ0068,2,2026-01-10,2026-01-24,302,316,15,DAYS,COUGH,COUGH,CARDIAC DISORDERS,SEVERE,Y,CTCAE,N,Y,N,Y,N,N,RELATED,DRUG WITHDRAWN,RECOVERED/RESOLVED,3,Y,Treatment 3,3,"REQUIRES HOSPITALIZATION, RESULTS IN DISABILITY, MEDICALLY IMPORTANT EVENT",N,Y,4
STUDY001,STUDY001-SUBJ0068,3,2025-09-24,2025-12-26,194,287,94,DAYS,HEADACHE,HEADACHE,NERVOUS SYSTEM DISORDERS,MILD,N,CTCAE,N,N,N,N,Y,N,NOT RELATED,DRUG WITHDRAWN,RECOVERED/RESOLVED,1,Y,Treatment 3,3,"LIFE THREATENING, MEDICALLY IMPORTANT EVENT",Y,N,4
STUDY001,STUDY001-SUBJ0069,1,2025-11-30,,-25,,,DAYS,VOMITING,VOMITING,NERVOUS SYSTEM DISORDERS,SEVERE,Y,CTCAE,N,Y,N,Y,Y,N,NOT RELATED,DRUG WITHDRAWN,RECOVERED/RESOLVED,3,N,Treatment 2,2,"LIFE THREATENING, REQUIRES HOSPITALIZATION, RESULTS IN DISABILITY",N,Y,9
STUDY001,STUDY001-SUBJ0069,2,2026-01-11,2026-01-17,18,24,7,DAYS,VOMITING,VOMITING,RESPIRATORY DISORDERS,MILD,N,CTCAE,N,Y,Y,Y,N,N,RELATED,NOT APPLICABLE,FATAL,1,Y,Treatment 2,2,"RESULTS IN DEATH, REQUIRES HOSPITALIZATION, RESULTS IN DISABILITY, MEDICALLY IMPORTANT EVENT",N,N,9
STUDY001,STUDY001-SUBJ0069,3,2025-11-01,,-54,,,DAYS,DIZZINESS,DIZZINESS,RESPIRATORY DISORDERS,MILD,N,CTCAE,N,N,Y,Y,Y,N,NOT RELATED,NOT APPLICABLE,FATAL,1,N,Treatment 2,2,"RESULTS IN DEATH, LIFE THREATENING, REQUIRES HOSPITALIZATION",N,N,9
STUDY001,STUDY001-SUBJ0071,1,2025-10-12,,11,,,DAYS,NAUSEA,NAUSEA,RESPIRATORY DISORDERS,MILD,N,CTCAE,N,Y,N,Y,N,N,RELATED,DRUG INTERRUPTED,RECOVERING/RESOLVING,1,Y,Treatment 2,2,"REQUIRES HOSPITALIZATION, RESULTS IN DISABILITY, MEDICALLY IMPORTANT EVENT",Y,N,48
STUDY001,STUDY001-SUBJ0071,2,2025-10-18,2025-12-04,17,64,48,DAYS,PAIN,PAIN,RESPIRATORY DISORDERS,MILD,N,CTCAE,N,Y,N,N,Y,N,RELATED,DOSE NOT CHANGED,RECOVERING/RESOLVING,1,Y,Treatment 2,2,"LIFE THREATENING, RESULTS IN DISABILITY, MEDICALLY IMPORTANT EVENT",N,N,48
STUDY001,STUDY001-SUBJ0072,1,2025-10-14,2026-01-03,28,109,82,DAYS,HEADACHE,HEADACHE,NERVOUS SYSTEM DISORDERS,MODERATE,N,CTCAE,N,N,N,N,N,N,NOT RELATED,DRUG WITHDRAWN,RECOVERED/RESOLVED,2,Y,Treatment 3,3,,Y,N,24
STUDY001,STUDY001-SUBJ0072,2,2025-10-06,2026-01-08,20,114,95,DAYS,FATIGUE,FATIGUE,CARDIAC DISORDERS,SEVERE,Y,CTCAE,N,Y,N,N,N,N,RELATED,DRUG WITHDRAWN,RECOVERING/RESOLVING,3,Y,Treatment 3,3,"RESULTS IN DISABILITY, MEDICALLY IMPORTANT EVENT",N,Y,24
STUDY001,STUDY001-SUBJ0073,1,2025-12-16,2025-12-16,131,131,1,DAYS,DIZZINESS,DIZZINESS,NERVOUS SYSTEM DISORDERS,MILD,N,CTCAE,N,N,N,N,Y,N,RELATED,DRUG WITHDRAWN,NOT RECOVERED/NOT RESOLVED,1,Y,Treatment 3,3,LIFE THREATENING,N,N,31
STUDY001,STUDY001-SUBJ0074,1,2025-08-02,2025-10-08,22,89,68,DAYS,DIZZINESS,DIZZINESS,CARDIAC DISORDERS,MODERATE,N,CTCAE,N,Y,N,N,Y,N,RELATED,DOSE REDUCED,RECOVERING/RESOLVING,2,Y,Treatment 2,2,"LIFE THREATENING, RESULTS IN DISABILITY",N,N,31
STUDY001,STUDY001-SUBJ0074,2,2025-09-11,2025-12-25,62,167,106,DAYS,RASH,RASH,GASTROINTESTINAL DISORDERS,SEVERE,Y,CTCAE,N,N,Y,Y,Y,N,NOT RELATED,NOT APPLICABLE,FATAL,3,Y,Treatment 2,2,"RESULTS IN DEATH, LIFE THREATENING, REQUIRES HOSPITALIZATION, MEDICALLY IMPORTANT EVENT",N,Y,31
STUDY001,STUDY001-SUBJ0075,1,2025-12-29,,113,,,DAYS,DIARRHEA,DIARRHEA,RESPIRATORY DISORDERS,MILD,N,CTCAE,N,Y,N,Y,N,N,NOT RELATED,DOSE REDUCED,RECOVERING/RESOLVING,1,Y,Treatment 3,3,"REQUIRES HOSPITALIZATION, RESULTS IN DISABILITY, MEDICALLY IMPORTANT EVENT",Y,N,13
STUDY001,STUDY001-SUBJ0076,1,2025-11-16,2026-01-11,100,156,57,DAYS,FATIGUE,FATIGUE,GASTROINTESTINAL DISORDERS,MODERATE,N,CTCAE,N,N,N,N,Y,N,NOT RELATED,DOSE NOT CHANGED,NOT RECOVERED/NOT RESOLVED,2,Y,Treatment 3,3,LIFE THREATENING,N,N,28
STUDY001,STUDY001-SUBJ0076,2,2025-12-04,,118,,,DAYS,DIARRHEA,DIARRHEA,CARDIAC DISORDERS,SEVERE,Y,CTCAE,N,N,N,Y,Y,N,NOT RELATED,DRUG WITHDRAWN,NOT RECOVERED/NOT RESOLVED,3,Y,Treatment 3,3,"LIFE THREATENING, REQUIRES HOSPITALIZATION",Y,Y,28
STUDY001,STUDY001-SUBJ0076,3,2026-01-21,2026-01-25,166,170,5,DAYS,DIZZINESS,DIZZINESS,NERVOUS SYSTEM DISORDERS,MODERATE,N,CTCAE,N,N,Y,Y,Y,N,NOT RELATED,DOSE NOT CHANGED,FATAL,2,Y,Treatment 3,3,"RESULTS IN DEATH, LIFE THREATENING, REQUIRES HOSPITALIZATION",N,N,28
STUDY001,STUDY001-SUBJ0076,4,2025-11-14,2025-11-14,98,98,1,DAYS,VOMITING,VOMITING,RESPIRATORY DISORDERS,SEVERE,Y,CTCAE,N,Y,N,N,N,N,NOT RELATED,DRUG INTERRUPTED,RECOVERING/RESOLVING,3,Y,Treatment 3,3,"RESULTS IN DISABILITY, MEDICALLY IMPORTANT EVENT",N,Y,28
STUDY001,STUDY001-SUBJ0077,1,2025-11-11,,65,,,DAYS,DIZZINESS,DIZZINESS,CARDIAC DISORDERS,MILD,N,CTCAE,N,N,N,N,N,N,NOT RELATED,DRUG WITHDRAWN,NOT RECOVERED/NOT RESOLVED,1,Y,Treatment 2,2,MEDICALLY IMPORTANT EVENT,N,N,1
STUDY001,STUDY001-SUBJ0077,2,2025-05-25,,-106,,,DAYS,FATIGUE,FATIGUE,GASTROINTESTINAL DISORDERS,MILD,N,CTCAE,N,N,N,N,Y,N,RELATED,DRUG WITHDRAWN,RECOVERING/RESOLVING,1,N,Treatment 2,2,"LIFE THREATENING, MEDICALLY IMPORTANT EVENT",N,N,1
STUDY001,STUDY001-SUBJ0077,3,2025-09-30,2026-01-13,23,128,106,DAYS,VOMITING,VOMITING,RESPIRATORY DISORDERS,SEVERE,Y,CTCAE,N,Y,N,Y,N,N,NOT RELATED,NOT APPLICABLE,RECOVERING/RESOLVING,3,Y,Treatment 2,2,"REQUIRES HOSPITALIZATION, RESULTS IN DISABILITY",N,Y,1
STUDY001,STUDY001-SUBJ0077,4,2025-12-25,2026-01-07,109,122,14,DAYS,VOMITING,VOMITING,CARDIAC DISORDERS,MILD,N,CTCAE,N,N,Y,N,Y,N,RELATED,DOSE NOT CHANGED,FATAL,1,Y,Treatment 2,2,"RESULTS IN DEATH, LIFE THREATENING, MEDICALLY IMPORTANT EVENT",N,N,1
STUDY001,STUDY001-SUBJ0078,1,2025-11-10,,229,,,DAYS,VOMITING,VOMITING,GASTROINTESTINAL DISORDERS,MILD,N,CTCAE,N,N,N,N,N,N,RELATED,NOT APPLICABLE,NOT RECOVERED/NOT RESOLVED,1,Y,Treatment 1,1,MEDICALLY IMPORTANT EVENT,N,N,2
STUDY001,STUDY001-SUBJ0079,1,2025-09-23,2025-10-05,-77,-65,13,DAYS,RASH,RASH,RESPIRATORY DISORDERS,SEVERE,Y,CTCAE,N,N,N,Y,N,N,RELATED,DRUG WITHDRAWN,RECOVERING/RESOLVING,3,N,Treatment 1,1,"REQUIRES HOSPITALIZATION, MEDICALLY IMPORTANT EVENT",N,Y,40
STUDY001,STUDY001-SUBJ0079,2,2025-07-31,2025-09-23,-131,-77,55,DAYS,INSOMNIA,INSOMNIA,GASTROINTESTINAL DISORDERS,MODERATE,N,CTCAE,N,N,Y,Y,Y,N,NOT RELATED,DOSE NOT CHANGED,FATAL,2,N,Treatment 1,1,"RESULTS IN DEATH, LIFE THREATENING, REQUIRES HOSPITALIZATION, MEDICALLY IMPORTANT EVENT",N,N,40
STUDY001,STUDY001-SUBJ0079,3,2025-11-15,2026-01-20,-24,43,67,DAYS,PAIN,PAIN,RESPIRATORY DISORDERS,MILD,N,CTCAE,N,N,N,Y,N,N,RELATED,NOT APPLICABLE,RECOVERING/RESOLVING,1,N,Treatment 1,1,REQUIRES HOSPITALIZATION,N,N,40
STUDY001,STUDY001-SUBJ0079,4,2025-05-08,,-215,,,DAYS,VOMITING,VOMITING,GASTROINTESTINAL DISORDERS,MILD,N,CTCAE,N,N,N,Y,N,N,NOT RELATED,DRUG INTERRUPTED,NOT RECOVERED/NOT RESOLVED,1,N,Treatment 1,1,"REQUIRES HOSPITALIZATION, MEDICALLY IMPORTANT EVENT",N,N,40
STUDY001,STUDY001-SUBJ0082,1,2025-12-18,2025-12-19,235,236,2,DAYS,NAUSEA,NAUSEA,CARDIAC DISORDERS,SEVERE,Y,CTCAE,N,N,Y,N,Y,N,NOT RELATED,DRUG WITHDRAWN,FATAL,3,Y,Treatment 2,2,"RESULTS IN DEATH, LIFE THREATENING, MEDICALLY IMPORTANT EVENT",Y,Y,14
STUDY001,STUDY001-SUBJ0082,2,2025-12-31,,248,,,DAYS,DIZZINESS,DIZZINESS,CARDIAC DISORDERS,SEVERE,Y,CTCAE,N,N,N,N,N,N,NOT RELATED,DOSE REDUCED,NOT RECOVERED/NOT RESOLVED,3,Y,Treatment 2,2,MEDICALLY IMPORTANT EVENT,N,Y,14
STUDY001,STUDY001-SUBJ0082,3,2025-10-22,2025-11-27,178,214,37,DAYS,FATIGUE,FATIGUE,CARDIAC DISORDERS,SEVERE,Y,CTCAE,N,Y,N,N,N,N,RELATED,DRUG WITHDRAWN,RECOVERING/RESOLVING,3,Y,Treatment 2,2,RESULTS IN DISABILITY,N,Y,14
STUDY001,STUDY001-SUBJ0083,1,2025-10-25,,33,,,DAYS,VOMITING,VOMITING,NERVOUS SYSTEM DISORDERS,MODERATE,N,CTCAE,N,N,N,Y,Y,N,RELATED,NOT APPLICABLE,NOT RECOVERED/NOT RESOLVED,2,Y,Treatment 3,3,"LIFE THREATENING, REQUIRES HOSPITALIZATION",N,N,46
STUDY001,STUDY001-SUBJ0083,2,2025-06-06,2025-09-11,-109,-12,98,DAYS,DIARRHEA,DIARRHEA,GASTROINTESTINAL DISORDERS,MILD,N,CTCAE,N,N,N,Y,N,N,NOT RELATED,DRUG INTERRUPTED,NOT RECOVERED/NOT RESOLVED,1,N,Treatment 3,3,"REQUIRES HOSPITALIZATION, MEDICALLY IMPORTANT EVENT",Y,N,46
STUDY001,STUDY001-SUBJ0085,1,2025-08-26,,-51,,,DAYS,NAUSEA,NAUSEA,RESPIRATORY DISORDERS,SEVERE,Y,CTCAE,N,Y,N,N,Y,N,RELATED,DOSE REDUCED,RECOVERED/RESOLVED,3,N,Treatment 3,3,"LIFE THREATENING, RESULTS IN DISABILITY",Y,Y,9
STUDY001,STUDY001-SUBJ0086,1,2025-07-08,,84,,,DAYS,NAUSEA,NAUSEA,NERVOUS SYSTEM DISORDERS,MODERATE,N,CTCAE,N,Y,N,N,Y,N,RELATED,DOSE NOT CHANGED,RECOVERING/RESOLVING,2,Y,Treatment 2,2,"LIFE THREATENING, RESULTS IN DISABILITY, MEDICALLY IMPORTANT EVENT",Y,N,13
STUDY001,STUDY001-SUBJ0086,2,2025-06-19,2025-12-13,65,242,178,DAYS,FEVER,FEVER,NERVOUS SYSTEM DISORDERS,MILD,N,CTCAE,N,N,N,N,N,N,RELATED,DRUG WITHDRAWN,RECOVERING/RESOLVING,1,Y,Treatment 2,2,MEDICALLY IMPORTANT EVENT,N,N,13
STUDY001,STUDY001-SUBJ0086,3,2025-10-28,,196,,,DAYS,HEADACHE,HEADACHE,CARDIAC DISORDERS,SEVERE,Y,CTCAE,N,N,N,N,N,N,NOT RELATED,DRUG INTERRUPTED,NOT RECOVERED/NOT RESOLVED,3,Y,Treatment 2,2,,Y,Y,13
STUDY001,STUDY001-SUBJ0086,4,2025-10-09,,177,,,DAYS,VOMITING,VOMITING,NERVOUS SYSTEM DISORDERS,MODERATE,N,CTCAE,N,Y,N,N,Y,N,NOT RELATED,DRUG WITHDRAWN,RECOVERING/RESOLVING,2,Y,Treatment 2,2,"LIFE THREATENING, RESULTS IN DISABILITY, MEDICALLY IMPORTANT EVENT",N,N,13
STUDY001,STUDY001-SUBJ0087,1,2025-08-30,2025-12-21,161,274,114,DAYS,INSOMNIA,INSOMNIA,CARDIAC DISORDERS,MILD,N,CTCAE,N,Y,N,N,N,N,RELATED,DOSE REDUCED,RECOVERING/RESOLVING,1,Y,Treatment 3,3,"RESULTS IN DISABILITY, MEDICALLY IMPORTANT EVENT",N,N,35
STUDY001,STUDY001-SUBJ0087,2,2026-01-14,2026-01-24,298,308,11,DAYS,VOMITING,VOMITING,CARDIAC DISORDERS,SEVERE,Y,CTCAE,N,N,N,Y,Y,N,RELATED,NOT APPLICABLE,RECOVERED/RESOLVED,3,Y,Treatment 3,3,"LIFE THREATENING, REQUIRES HOSPITALIZATION",N,Y,35
STUDY001,STUDY001-SUBJ0088,1,2026-01-16,2026-01-16,234,234,1,DAYS,DIARRHEA,DIARRHEA,GASTROINTESTINAL DISORDERS,MODERATE,N,CTCAE,N,Y,N,Y,Y,N,RELATED,DRUG WITHDRAWN,RECOVERED/RESOLVED,2,Y,Treatment 2,2,"LIFE THREATENING, REQUIRES HOSPITALIZATION, RESULTS IN DISABILITY",Y,N,28
STUDY001,STUDY001-SUBJ0088,2,2025-11-27,2026-01-17,184,235,52,DAYS,FATIGUE,FATIGUE,RESPIRATORY DISORDERS,MILD,N,CTCAE,N,N,N,Y,Y,N,NOT RELATED,DRUG WITHDRAWN,NOT RECOVERED/NOT RESOLVED,1,Y,Treatment 2,2,"LIFE THREATENING, REQUIRES HOSPITALIZATION",N,N,28
STUDY001,STUDY001-SUBJ0088,3,2025-12-02,2025-12-16,189,203,15,DAYS,FEVER,FEVER,NERVOUS SYSTEM DISORDERS,MILD,N,CTCAE,N,Y,Y,Y,N,N,NOT RELATED,DOSE NOT CHANGED,FATAL,1,Y,Treatment 2,2,"RESULTS IN DEATH, REQUIRES HOSPITALIZATION, RESULTS IN DISABILITY",N,N,28
STUDY001,STUDY001-SUBJ0088,4,2026-01-27,2026-01-29,245,247,3,DAYS,FATIGUE,FATIGUE,GASTROINTESTINAL DISORDERS,MILD,N,CTCAE,N,Y,N,Y,N,N,NOT RELATED,DOSE REDUCED,RECOVERED/RESOLVED,1,Y,Treatment 2,2,"REQUIRES HOSPITALIZATION, RESULTS IN DISABILITY, MEDICALLY IMPORTANT EVENT",N,N,28
STUDY001,STUDY001-SUBJ0088,5,2025-12-27,,214,,,DAYS,VOMITING,VOMITING,GASTROINTESTINAL DISORDERS,MODERATE,N,CTCAE,N,Y,N,Y,N,N,NOT RELATED,NOT APPLICABLE,NOT RECOVERED/NOT RESOLVED,2,Y,Treatment 2,2,"REQUIRES HOSPITALIZATION, RESULTS IN DISABILITY, MEDICALLY IMPORTANT EVENT",N,N,28
STUDY001,STUDY001-SUBJ0089,1,2025-11-10,2025-11-22,24,36,13,DAYS,INSOMNIA,INSOMNIA,CARDIAC DISORDERS,SEVERE,Y,CTCAE,N,Y,N,Y,N,N,RELATED,DOSE REDUCED,RECOVERING/RESOLVING,3,Y,Treatment 1,1,"REQUIRES HOSPITALIZATION, RESULTS IN DISABILITY, MEDICALLY IMPORTANT EVENT",N,Y,32
STUDY001,STUDY001-SUBJ0089,2,2025-11-21,2025-12-06,35,50,16,DAYS,RASH,RASH,CARDIAC DISORDERS,MODERATE,N,CTCAE,N,Y,N,Y,Y,N,RELATED,NOT APPLICABLE,RECOVERED/RESOLVED,2,Y,Treatment 1,1,"LIFE THREATENING, REQUIRES HOSPITALIZATION, RESULTS IN DISABILITY",N,N,32
STUDY001,STUDY001-SUBJ0089,3,2026-01-02,2026-01-05,77,80,4,DAYS,DIARRHEA,DIARRHEA,GASTROINTESTINAL DISORDERS,SEVERE,Y,CTCAE,N,Y,N,N,N,N,RELATED,DRUG INTERRUPTED,NOT RECOVERED/NOT RESOLVED,3,Y,Treatment 1,1,"RESULTS IN DISABILITY, MEDICALLY IMPORTANT EVENT",Y,Y,32
STUDY001,STUDY001-SUBJ0091,1,2025-09-30,,-60,,,DAYS,COUGH,COUGH,CARDIAC DISORDERS,MODERATE,N,CTCAE,N,N,N,N,Y,N,RELATED,DOSE REDUCED,RECOVERING/RESOLVING,2,N,Treatment 3,3,LIFE THREATENING,N,N,2
STUDY001,STUDY001-SUBJ0094,1,2025-04-22,2025-08-29,-129,1,130,DAYS,FEVER,FEVER,RESPIRATORY DISORDERS,SEVERE,Y,CTCAE,N,N,Y,N,N,N,NOT RELATED,DOSE REDUCED,FATAL,3,N,Treatment 1,1,RESULTS IN DEATH,N,Y,15
STUDY001,STUDY001-SUBJ0094,2,2025-11-03,2025-11-23,67,87,21,DAYS,HEADACHE,HEADACHE,GASTROINTESTINAL DISORDERS,MILD,N,CTCAE,N,Y,Y,N,Y,N,NOT RELATED,NOT APPLICABLE,FATAL,1,Y,Treatment 1,1,"RESULTS IN DEATH, LIFE THREATENING, RESULTS IN DISABILITY",Y,N,15
STUDY001,STUDY001-SUBJ0094,3,2025-11-25,2025-12-09,89,103,15,DAYS,RASH,RASH,NERVOUS SYSTEM DISORDERS,MODERATE,N,CTCAE,N,N,N,N,Y,N,NOT RELATED,DOSE REDUCED,NOT RECOVERED/NOT RESOLVED,2,Y,Treatment 1,1,LIFE THREATENING,N,N,15
STUDY001,STUDY001-SUBJ0095,1,2025-08-12,,134,,,DAYS,INSOMNIA,INSOMNIA,CARDIAC DISORDERS,MODERATE,N,CTCAE,N,Y,Y,Y,Y,N,NOT RELATED,DRUG INTERRUPTED,FATAL,2,Y,Treatment 1,1,"RESULTS IN DEATH, LIFE THREATENING, REQUIRES HOSPITALIZATION, RESULTS IN DISABILITY, MEDICALLY IMPORTANT EVENT",N,N,34
STUDY001,STUDY001-SUBJ0095,2,2025-11-05,,219,,,DAYS,NAUSEA,NAUSEA,CARDIAC DISORDERS,MILD,N,CTCAE,N,N,Y,Y,Y,N,RELATED,DRUG INTERRUPTED,FATAL,1,Y,Treatment 1,1,"RESULTS IN DEATH, LIFE THREATENING, REQUIRES HOSPITALIZATION",Y,N,34
STUDY001,STUDY001-SUBJ0095,3,2025-10-10,,193,,,DAYS,DIZZINESS,DIZZINESS,RESPIRATORY DISORDERS,SEVERE,Y,CTCAE,N,N,N,N,N,N,NOT RELATED,DOSE NOT CHANGED,NOT RECOVERED/NOT RESOLVED,3,Y,Treatment 1,1,MEDICALLY IMPORTANT EVENT,N,Y,34
STUDY001,STUDY001-SUBJ0095,4,2025-10-03,2025-11-07,186,221,36,DAYS,COUGH,COUGH,GASTROINTESTINAL DISORDERS,MILD,N,CTCAE,N,Y,N,Y,N,N,NOT RELATED,DOSE REDUCED,NOT RECOVERED/NOT RESOLVED,1,Y,Treatment 1,1,"REQUIRES HOSPITALIZATION, RESULTS IN DISABILITY",N,N,34
STUDY001,STUDY001-SUBJ0095,5,2025-09-29,2025-10-01,182,184,3,DAYS,HEADACHE,HEADACHE,NERVOUS SYSTEM DISORDERS,MODERATE,N,CTCAE,N,Y,N,N,Y,N,RELATED,DOSE NOT CHANGED,NOT RECOVERED/NOT RESOLVED,2,Y,Treatment 1,1,"LIFE THREATENING, RESULTS IN DISABILITY, MEDICALLY IMPORTANT EVENT",Y,N,34
STUDY001,STUDY001-SUBJ0096,1,2025-08-17,2025-12-24,50,179,130,DAYS,FEVER,FEVER,NERVOUS SYSTEM DISORDERS,MODERATE,N,CTCAE,N,N,Y,N,N,N,RELATED,DRUG INTERRUPTED,FATAL,2,Y,Treatment 3,3,"RESULTS IN DEATH, MEDICALLY IMPORTANT EVENT",N,N,29
STUDY001,STUDY001-SUBJ0097,1,2025-10-16,2025-10-16,218,218,1,DAYS,VOMITING,VOMITING,GASTROINTESTINAL DISORDERS,SEVERE,Y,CTCAE,N,Y,Y,Y,N,N,RELATED,DRUG INTERRUPTED,FATAL,3,Y,Treatment 2,2,"RESULTS IN DEATH, REQUIRES HOSPITALIZATION, RESULTS IN DISABILITY, MEDICALLY IMPORTANT EVENT",N,Y,29
STUDY001,STUDY001-SUBJ0097,2,2025-12-25,2026-01-06,288,300,13,DAYS,NAUSEA,NAUSEA,NERVOUS SYSTEM DISORDERS,SEVERE,Y,CTCAE,N,N,N,Y,N,N,RELATED,DOSE NOT CHANGED,RECOVERING/RESOLVING,3,Y,Treatment 2,2,REQUIRES HOSPITALIZATION,Y,Y,29
STUDY001,STUDY001-SUBJ0097,3,2025-11-18,2026-01-06,251,300,50,DAYS,INSOMNIA,INSOMNIA,RESPIRATORY DISORDERS,MILD,N,CTCAE,N,N,N,Y,Y,N,RELATED,NOT APPLICABLE,NOT RECOVERED/NOT RESOLVED,1,Y,Treatment 2,2,"LIFE THREATENING, REQUIRES HOSPITALIZATION, MEDICALLY IMPORTANT EVENT",N,N,29
STUDY001,STUDY001-SUBJ0098,1,2025-11-25,,170,,,DAYS,COUGH,COUGH,NERVOUS SYSTEM DISORDERS,SEVERE,Y,CTCAE,N,N,Y,Y,Y,N,NOT RELATED,DOSE REDUCED,FATAL,3,Y,Treatment 3,3,"RESULTS IN DEATH, LIFE THREATENING, REQUIRES HOSPITALIZATION",N,Y,45
STUDY001,STUDY001-SUBJ0098,2,2025-12-09,2025-12-10,184,185,2,DAYS,DIARRHEA,DIARRHEA,NERVOUS SYSTEM DISORDERS,MODERATE,N,CTCAE,N,N,N,N,Y,N,NOT RELATED,NOT APPLICABLE,RECOVERING/RESOLVING,2,Y,Treatment 3,3,"LIFE THREATENING, MEDICALLY IMPORTANT EVENT",Y,N,45
STUDY001,STUDY001-SUBJ0098,3,2025-05-18,2025-11-09,-22,154,176,DAYS,HEADACHE,HEADACHE,CARDIAC DISORDERS,MILD,N,CTCAE,N,N,Y,N,N,N,NOT RELATED,DRUG INTERRUPTED,FATAL,1,N,Treatment 3,3,"RESULTS IN DEATH, MEDICALLY IMPORTANT EVENT",Y,N,45
STUDY001,STUDY001-SUBJ0100,1,2025-12-27,2025-12-27,126,126,1,DAYS,RASH,RASH,CARDIAC DISORDERS,MODERATE,N,CTCAE,N,N,N,Y,Y,N,RELATED,DRUG INTERRUPTED,RECOVERING/RESOLVING,2,Y,Treatment 1,1,"LIFE THREATENING, REQUIRES HOSPITALIZATION",N,N,11
STUDY001,STUDY001-SUBJ0100,2,2025-03-26,2025-06-24,-151,-61,91,DAYS,PAIN,PAIN,CARDIAC DISORDERS,MILD,N,CTCAE,N,Y,N,N,Y,N,RELATED,DOSE REDUCED,RECOVERED/RESOLVED,1,N,Treatment 1,1,"LIFE THREATENING, RESULTS IN DISABILITY, MEDICALLY IMPORTANT EVENT",N,N,11
STUDY001,STUDY001-SUBJ0100,3,2025-06-04,,-81,,,DAYS,NAUSEA,NAUSEA,CARDIAC DISORDERS,MILD,N,CTCAE,N,Y,N,N,Y,N,RELATED,DRUG INTERRUPTED,NOT RECOVERED/NOT RESOLVED,1,N,Treatment 1,1,"LIFE THREATENING, RESULTS IN DISABILITY, MEDICALLY IMPORTANT EVENT",Y,N,11
STUDY001,STUDY001-SUBJ0100,4,2025-03-19,,-158,,,DAYS,FEVER,FEVER,CARDIAC DISORDERS,MILD,N,CTCAE,N,Y,Y,Y,N,N,RELATED,NOT APPLICABLE,FATAL,1,N,Treatment 1,1,"RESULTS IN DEATH, REQUIRES HOSPITALIZATION, RESULTS IN DISABILITY",N,N,11
