STUDYID,DOMAIN,USUBJID,SUBJID,RFSTDTC,RFENDTC,RFXSTDTC,RFXENDTC,RFICDTC,RFPENDTC,DTHDTC,DTHFL,SITEID,AGE,AGEU,SEX,RACE,ETHNIC,ARMCD,ARM,ACTARMCD,ACTARM,COUNTRY,DMDTC,DMDY
STUDY001,DM,STUDY001-SUBJ0001,SUBJ0001,2025-03-20,2026-02-03,2025-02-12,2026-01-22,2025-08-25,2026-02-03,,,37,56,YEARS,M,AMERICAN INDIAN OR ALASKA NATIVE,HISPANIC OR LATINO,ARM1,Treatment 1,ARM1,Treatment 1,TW,2025-06-16,2
STUDY001,DM,STUDY001-SUBJ0002,SUBJ0002,2025-07-03,2026-01-24,2025-07-17,2026-01-30,2025-09-22,2026-01-24,,,19,65,YEARS,F,AMERICAN INDIAN OR ALASKA NATIVE,HISPANIC OR LATINO,ARM1,Treatment 1,ARM1,Treatment 1,DK,2025-08-25,6
STUDY001,DM,STUDY001-SUBJ0003,SUBJ0003,2025-03-05,2026-01-17,2025-06-24,2026-01-08,2025-05-08,2026-01-17,,,42,56,YEARS,F,BLACK OR AFRICAN AMERICAN,NOT HISPANIC OR LATINO,ARM3,Treatment 3,ARM3,Treatment 3,PY,2025-07-06,23
STUDY001,DM,STUDY001-SUBJ0004,SUBJ0004,2025-12-06,2026-01-17,2025-12-02,2026-01-18,2025-09-19,2026-01-17,,,42,75,YEARS,F,WHITE,NOT HISPANIC OR LATINO,ARM2,Treatment 2,ARM2,Treatment 2,MD,2025-07-31,28
STUDY001,DM,STUDY001-SUBJ0005,SUBJ0005,2025-11-19,2026-01-14,2025-04-20,2026-01-17,2025-06-29,2026-01-14,,,37,35,YEARS,M,BLACK OR AFRICAN AMERICAN,HISPANIC OR LATINO,ARM2,Treatment 2,ARM2,Treatment 2,GQ,2025-07-23,1
STUDY001,DM,STUDY001-SUBJ0006,SUBJ0006,2025-06-21,2026-01-06,2025-04-14,2026-01-31,2025-07-31,2026-01-06,,,28,64,YEARS,F,BLACK OR AFRICAN AMERICAN,HISPANIC OR LATINO,ARM1,Treatment 1,ARM1,Treatment 1,PS,2025-06-15,30
STUDY001,DM,STUDY001-SUBJ0007,SUBJ0007,2025-05-17,2026-01-14,2025-11-16,2026-01-09,2025-07-30,2026-01-14,,,18,47,YEARS,F,WHITE,NOT HISPANIC OR LATINO,ARM3,Treatment 3,ARM3,Treatment 3,PL,2025-03-12,22
STUDY001,DM,STUDY001-SUBJ0008,SUBJ0008,2025-11-16,2026-01-09,2025-12-18,2026-01-11,2025-07-19,2026-01-09,,,33,18,YEARS,F,BLACK OR AFRICAN AMERICAN,NOT HISPANIC OR LATINO,ARM1,Treatment 1,ARM1,Treatment 1,MM,2025-03-15,12
STUDY001,DM,STUDY001-SUBJ0009,SUBJ0009,2025-02-24,2026-01-14,2025-09-15,2026-01-05,2025-09-30,2026-01-14,,,33,22,YEARS,M,OTHER,NOT HISPANIC OR LATINO,ARM1,Treatment 1,ARM1,Treatment 1,LU,2025-06-07,2
STUDY001,DM,STUDY001-SUBJ0010,SUBJ0010,2025-04-22,2026-01-09,2025-08-16,2026-01-25,2025-05-13,2026-01-09,,,35,78,YEARS,M,OTHER,NOT HISPANIC OR LATINO,ARM2,Treatment 2,ARM2,Treatment 2,RS,2025-11-02,16
STUDY001,DM,STUDY001-SUBJ0011,SUBJ0011,2025-12-08,2026-01-23,2025-07-04,2026-02-01,2025-06-09,2026-01-23,,,22,44,YEARS,F,AMERICAN INDIAN OR ALASKA NATIVE,HISPANIC OR LATINO,ARM3,Treatment 3,ARM3,Treatment 3,TM,2025-07-22,5
STUDY001,DM,STUDY001-SUBJ0012,SUBJ0012,2025-05-20,2026-01-31,2025-07-01,2026-01-30,2025-07-03,2026-01-31,,,1,55,YEARS,F,ASIAN,NOT HISPANIC OR LATINO,ARM1,Treatment 1,ARM1,Treatment 1,MC,2025-02-22,2
STUDY001,DM,STUDY001-SUBJ0013,SUBJ0013,2025-03-26,2026-01-31,2025-08-13,2026-01-08,2025-05-30,2026-01-31,,,47,54,YEARS,M,WHITE,NOT HISPANIC OR LATINO,ARM1,Treatment 1,ARM1,Treatment 1,GH,2025-04-19,22
STUDY001,DM,STUDY001-SUBJ0014,SUBJ0014,2025-08-08,2026-01-31,2025-03-23,2026-01-09,2025-05-25,2026-01-31,,,49,57,YEARS,F,ASIAN,NOT HISPANIC OR LATINO,ARM2,Treatment 2,ARM2,Treatment 2,LI,2025-04-22,16
STUDY001,DM,STUDY001-SUBJ0015,SUBJ0015,2025-07-06,2026-01-26,2025-07-08,2026-01-30,2025-12-12,2026-01-26,,,8,40,YEARS,M,WHITE,HISPANIC OR LATINO,ARM2,Treatment 2,ARM2,Treatment 2,GT,2025-04-16,14
STUDY001,DM,STUDY001-SUBJ0016,SUBJ0016,2025-02-20,2026-01-06,2025-12-20,2026-01-17,2025-09-18,2026-01-06,,,45,72,YEARS,F,ASIAN,HISPANIC OR LATINO,ARM2,Treatment 2,ARM2,Treatment 2,SL,2025-12-10,15
STUDY001,DM,STUDY001-SUBJ0017,SUBJ0017,2025-04-29,2026-02-01,2025-04-14,2026-01-05,2025-08-28,2026-02-01,,,28,79,YEARS,F,WHITE,HISPANIC OR LATINO,ARM1,Treatment 1,ARM1,Treatment 1,JM,2025-03-06,28
STUDY001,DM,STUDY001-SUBJ0018,SUBJ0018,2025-09-22,2026-01-24,2025-12-08,2026-01-28,2025-11-18,2026-01-24,,,32,47,YEARS,F,AMERICAN INDIAN OR ALASKA NATIVE,HISPANIC OR LATINO,ARM2,Treatment 2,ARM2,Treatment 2,AR,2025-09-26,16
STUDY001,DM,STUDY001-SUBJ0019,SUBJ0019,2025-09-12,2026-02-01,2025-02-03,2026-01-15,2025-07-25,2026-02-01,,,15,74,YEARS,M,WHITE,NOT HISPANIC OR LATINO,ARM1,Treatment 1,ARM1,Treatment 1,SZ,2025-11-08,20
STUDY001,DM,STUDY001-SUBJ0020,SUBJ0020,2025-07-24,2026-01-09,2025-05-26,2026-01-17,2025-03-13,2026-01-09,,,36,69,YEARS,M,ASIAN,NOT HISPANIC OR LATINO,ARM3,Treatment 3,ARM3,Treatment 3,GA,2025-05-06,23
STUDY001,DM,STUDY001-SUBJ0021,SUBJ0021,2025-03-31,2026-01-22,2025-11-01,2026-01-18,2025-06-27,2026-01-22,,,9,21,YEARS,F,OTHER,HISPANIC OR LATINO,ARM3,Treatment 3,ARM3,Treatment 3,FR,2025-06-23,11
STUDY001,DM,STUDY001-SUBJ0022,SUBJ0022,2025-09-09,2026-01-15,2025-03-27,2026-01-19,2025-02-16,2026-01-15,,,46,18,YEARS,F,AMERICAN INDIAN OR ALASKA NATIVE,HISPANIC OR LATINO,ARM3,Treatment 3,ARM3,Treatment 3,FJ,2025-04-09,20
STUDY001,DM,STUDY001-SUBJ0023,SUBJ0023,2025-07-23,2026-01-06,2025-04-24,2026-01-23,2025-05-21,2026-01-06,,,21,26,YEARS,F,BLACK OR AFRICAN AMERICAN,NOT HISPANIC OR LATINO,ARM1,Treatment 1,ARM1,Treatment 1,GB,2025-06-18,21
STUDY001,DM,STUDY001-SUBJ0024,SUBJ0024,2025-03-17,2026-01-11,2025-04-01,2026-01-17,2025-08-23,2026-01-11,,,49,18,YEARS,F,OTHER,HISPANIC OR LATINO,ARM1,Treatment 1,ARM1,Treatment 1,TT,2025-07-28,30
STUDY001,DM,STUDY001-SUBJ0025,SUBJ0025,2025-02-23,2026-01-14,2025-03-25,2026-02-02,2025-11-15,2026-01-14,,,41,53,YEARS,F,WHITE,HISPANIC OR LATINO,ARM3,Treatment 3,ARM3,Treatment 3,IQ,2025-06-25,11
STUDY001,DM,STUDY001-SUBJ0026,SUBJ0026,2025-07-16,2026-01-14,2025-11-25,2026-01-25,2025-05-12,2026-01-14,,,41,28,YEARS,M,AMERICAN INDIAN OR ALASKA NATIVE,HISPANIC OR LATINO,ARM3,Treatment 3,ARM3,Treatment 3,SG,2025-02-24,2
STUDY001,DM,STUDY001-SUBJ0027,SUBJ0027,2025-12-10,2026-01-20,2025-05-16,2026-01-19,2025-03-19,2026-01-20,,,39,70,YEARS,M,WHITE,HISPANIC OR LATINO,ARM1,Treatment 1,ARM1,Treatment 1,IL,2025-09-05,5
STUDY001,DM,STUDY001-SUBJ0028,SUBJ0028,2025-09-05,2026-01-07,2025-11-08,2026-01-18,2025-06-29,2026-01-07,,,4,27,YEARS,M,BLACK OR AFRICAN AMERICAN,NOT HISPANIC OR LATINO,ARM3,Treatment 3,ARM3,Treatment 3,LB,2025-06-18,9
STUDY001,DM,STUDY001-SUBJ0029,SUBJ0029,2025-05-30,2026-01-15,2025-06-28,2026-01-12,2025-08-15,2026-01-15,,,33,21,YEARS,M,OTHER,NOT HISPANIC OR LATINO,ARM3,Treatment 3,ARM3,Treatment 3,MU,2025-09-17,6
STUDY001,DM,STUDY001-SUBJ0030,SUBJ0030,2025-11-06,2026-01-23,2025-07-13,2026-01-18,2025-06-21,2026-01-23,,,13,30,YEARS,M,WHITE,HISPANIC OR LATINO,ARM3,Treatment 3,ARM3,Treatment 3,MV,2025-07-01,4
STUDY001,DM,STUDY001-SUBJ0031,SUBJ0031,2025-04-30,2026-01-15,2025-02-19,2026-01-13,2025-09-18,2026-01-15,,,12,77,YEARS,M,OTHER,HISPANIC OR LATINO,ARM1,Treatment 1,ARM1,Treatment 1,KN,2025-06-27,30
STUDY001,DM,STUDY001-SUBJ0032,SUBJ0032,2025-11-02,2026-01-20,2025-06-03,2026-01-20,2025-12-07,2026-01-20,,,6,76,YEARS,M,OTHER,NOT HISPANIC OR LATINO,ARM3,Treatment 3,ARM3,Treatment 3,PA,2025-05-11,29
STUDY001,DM,STUDY001-SUBJ0033,SUBJ0033,2025-02-09,2026-01-10,2025-04-04,2026-01-18,2025-07-19,2026-01-10,,,26,43,YEARS,F,AMERICAN INDIAN OR ALASKA NATIVE,HISPANIC OR LATINO,ARM3,Treatment 3,ARM3,Treatment 3,DM,2025-04-27,15
STUDY001,DM,STUDY001-SUBJ0034,SUBJ0034,2025-08-31,2026-01-16,2025-11-16,2026-01-14,2025-10-26,2026-01-16,,,46,53,YEARS,M,OTHER,HISPANIC OR LATINO,ARM2,Treatment 2,ARM2,Treatment 2,SI,2025-06-24,21
STUDY001,DM,STUDY001-SUBJ0035,SUBJ0035,2025-07-04,2026-01-08,2025-06-11,2026-01-14,2025-07-16,2026-01-08,,,43,76,YEARS,M,ASIAN,NOT HISPANIC OR LATINO,ARM3,Treatment 3,ARM3,Treatment 3,LS,2025-12-04,26
STUDY001,DM,STUDY001-SUBJ0036,SUBJ0036,2025-06-08,2026-01-29,2025-06-05,2026-01-14,2025-04-03,2026-01-29,,,23,30,YEARS,F,OTHER,NOT HISPANIC OR LATINO,ARM2,Treatment 2,ARM2,Treatment 2,CZ,2026-01-02,26
STUDY001,DM,STUDY001-SUBJ0037,SUBJ0037,2025-03-24,2026-01-27,2025-12-01,2026-01-24,2025-12-26,2026-01-27,,,2,30,YEARS,M,WHITE,HISPANIC OR LATINO,ARM1,Treatment 1,ARM1,Treatment 1,PE,2025-12-25,9
STUDY001,DM,STUDY001-SUBJ0038,SUBJ0038,2025-09-19,2026-01-31,2025-09-23,2026-01-13,2025-10-10,2026-01-31,,,4,61,YEARS,F,ASIAN,HISPANIC OR LATINO,ARM1,Treatment 1,ARM1,Treatment 1,PE,2025-10-27,16
STUDY001,DM,STUDY001-SUBJ0039,SUBJ0039,2025-09-08,2026-01-21,2025-03-12,2026-01-11,2025-12-18,2026-01-21,,,7,65,YEARS,F,WHITE,HISPANIC OR LATINO,ARM3,Treatment 3,ARM3,Treatment 3,BE,2025-09-11,8
STUDY001,DM,STUDY001-SUBJ0040,SUBJ0040,2025-08-23,2026-01-31,2025-10-28,2026-01-08,2025-12-31,2026-01-31,,,48,47,YEARS,F,BLACK OR AFRICAN AMERICAN,NOT HISPANIC OR LATINO,ARM2,Treatment 2,ARM2,Treatment 2,TD,2025-08-20,25
STUDY001,DM,STUDY001-SUBJ0041,SUBJ0041,2025-10-16,2026-01-11,2025-12-02,2026-01-28,2025-08-24,2026-01-11,,,3,49,YEARS,M,BLACK OR AFRICAN AMERICAN,HISPANIC OR LATINO,ARM1,Treatment 1,ARM1,Treatment 1,PL,2025-07-03,21
STUDY001,DM,STUDY001-SUBJ0042,SUBJ0042,2025-05-04,2026-01-27,2025-04-12,2026-01-27,2025-11-10,2026-01-27,,,43,58,YEARS,F,AMERICAN INDIAN OR ALASKA NATIVE,HISPANIC OR LATINO,ARM3,Treatment 3,ARM3,Treatment 3,AM,2025-05-27,27
STUDY001,DM,STUDY001-SUBJ0043,SUBJ0043,2025-03-31,2026-01-12,2025-04-10,2026-01-22,2025-02-26,2026-01-12,,,36,71,YEARS,M,ASIAN,NOT HISPANIC OR LATINO,ARM2,Treatment 2,ARM2,Treatment 2,FJ,2025-11-04,22
STUDY001,DM,STUDY001-SUBJ0044,SUBJ0044,2025-05-01,2026-01-24,2025-07-12,2026-01-10,2025-05-02,2026-01-24,,,17,68,YEARS,M,OTHER,NOT HISPANIC OR LATINO,ARM1,Treatment 1,ARM1,Treatment 1,SK,2025-11-01,29
STUDY001,DM,STUDY001-SUBJ0045,SUBJ0045,2025-10-24,2026-01-11,2025-03-20,2026-02-01,2025-11-24,2026-01-11,,,21,61,YEARS,M,BLACK OR AFRICAN AMERICAN,HISPANIC OR LATINO,ARM2,Treatment 2,ARM2,Treatment 2,DK,2025-08-17,19
STUDY001,DM,STUDY001-SUBJ0046,SUBJ0046,2025-02-21,2026-01-28,2025-06-05,2026-01-15,2025-10-18,2026-01-28,,,43,23,YEARS,M,BLACK OR AFRICAN AMERICAN,HISPANIC OR LATINO,ARM2,Treatment 2,ARM2,Treatment 2,MU,2025-05-12,12
STUDY001,DM,STUDY001-SUBJ0047,SUBJ0047,2025-04-15,2026-01-23,2025-05-14,2026-02-01,2025-11-02,2026-01-23,,,12,46,YEARS,M,WHITE,HISPANIC OR LATINO,ARM1,Treatment 1,ARM1,Treatment 1,CH,2025-09-13,9
STUDY001,DM,STUDY001-SUBJ0048,SUBJ0048,2025-11-18,2026-01-29,2025-08-08,2026-01-24,2025-07-05,2026-01-29,,,41,46,YEARS,F,AMERICAN INDIAN OR ALASKA NATIVE,NOT HISPANIC OR LATINO,ARM2,Treatment 2,ARM2,Treatment 2,AZ,2025-11-22,4
STUDY001,DM,STUDY001-SUBJ0049,SUBJ0049,2025-02-16,2026-01-06,2025-03-19,2026-01-22,2025-12-07,2026-01-06,,,1,45,YEARS,F,BLACK OR AFRICAN AMERICAN,HISPANIC OR LATINO,ARM2,Treatment 2,ARM2,Treatment 2,DE,2025-11-04,17
STUDY001,DM,STUDY001-SUBJ0050,SUBJ0050,2025-08-01,2026-01-29,2025-11-18,2026-01-10,2025-05-04,2026-01-29,,,20,49,YEARS,F,OTHER,HISPANIC OR LATINO,ARM2,Treatment 2,ARM2,Treatment 2,FM,2025-05-23,28
STUDY001,DM,STUDY001-SUBJ0051,SUBJ0051,2025-06-19,2026-01-17,2025-12-31,2026-01-28,2025-05-10,2026-01-17,,,1,50,YEARS,M,BLACK OR AFRICAN AMERICAN,NOT HISPANIC OR LATINO,ARM3,Treatment 3,ARM3,Treatment 3,AG,2025-12-21,14
STUDY001,DM,STUDY001-SUBJ0052,SUBJ0052,2025-05-15,2026-01-22,2025-02-28,2026-01-29,2025-08-22,2026-01-22,,,18,30,YEARS,F,OTHER,HISPANIC OR LATINO,ARM3,Treatment 3,ARM3,Treatment 3,TH,2025-12-18,20
STUDY001,DM,STUDY001-SUBJ0053,SUBJ0053,2025-08-24,2026-01-31,2025-05-05,2026-01-19,2025-10-29,2026-01-31,,,16,47,YEARS,F,OTHER,NOT HISPANIC OR LATINO,ARM3,Treatment 3,ARM3,Treatment 3,LA,2025-07-16,20
STUDY001,DM,STUDY001-SUBJ0054,SUBJ0054,2025-02-28,2026-01-22,2025-07-22,2026-01-27,2025-10-04,2026-01-22,,,10,61,YEARS,M,ASIAN,NOT HISPANIC OR LATINO,ARM1,Treatment 1,ARM1,Treatment 1,LC,2025-02-23,29
STUDY001,DM,STUDY001-SUBJ0055,SUBJ0055,2025-12-25,2026-01-15,2025-06-02,2026-02-03,2025-06-13,2026-01-15,,,9,65,YEARS,F,AMERICAN INDIAN OR ALASKA NATIVE,NOT HISPANIC OR LATINO,ARM3,Treatment 3,ARM3,Treatment 3,DO,2025-08-18,18
STUDY001,DM,STUDY001-SUBJ0056,SUBJ0056,2025-11-03,2026-01-21,2025-09-29,2026-01-29,2025-10-10,2026-01-21,,,32,67,YEARS,M,OTHER,HISPANIC OR LATINO,ARM1,Treatment 1,ARM1,Treatment 1,AE,2025-04-19,23
STUDY001,DM,STUDY001-SUBJ0057,SUBJ0057,2025-08-16,2026-01-16,2025-02-18,2026-01-24,2025-08-01,2026-01-16,,,7,34,YEARS,F,ASIAN,HISPANIC OR LATINO,ARM1,Treatment 1,ARM1,Treatment 1,LA,2025-12-12,6
STUDY001,DM,STUDY001-SUBJ0058,SUBJ0058,2025-07-01,2026-01-28,2025-08-07,2026-01-12,2025-09-10,2026-01-28,,,28,27,YEARS,M,AMERICAN INDIAN OR ALASKA NATIVE,NOT HISPANIC OR LATINO,ARM2,Treatment 2,ARM2,Treatment 2,LB,2025-10-08,10
STUDY001,DM,STUDY001-SUBJ0059,SUBJ0059,2025-12-03,2026-01-22,2025-12-11,2026-01-16,2025-10-23,2026-01-22,,,32,73,YEARS,M,AMERICAN INDIAN OR ALASKA NATIVE,HISPANIC OR LATINO,ARM2,Treatment 2,ARM2,Treatment 2,PH,2025-12-09,30
STUDY001,DM,STUDY001-SUBJ0060,SUBJ0060,2025-12-24,2026-02-01,2025-11-06,2026-02-03,2025-11-05,2026-02-01,,,37,49,YEARS,M,AMERICAN INDIAN OR ALASKA NATIVE,NOT HISPANIC OR LATINO,ARM1,Treatment 1,ARM1,Treatment 1,IL,2025-11-17,10
STUDY001,DM,STUDY001-SUBJ0061,SUBJ0061,2025-02-07,2026-01-08,2025-12-22,2026-01-23,2025-11-23,2026-01-08,,,23,72,YEARS,M,AMERICAN INDIAN OR ALASKA NATIVE,HISPANIC OR LATINO,ARM1,Treatment 1,ARM1,Treatment 1,WS,2025-02-20,23
STUDY001,DM,STUDY001-SUBJ0062,SUBJ0062,2025-12-22,2026-01-19,2025-07-21,2026-01-18,2025-08-06,2026-01-19,,,12,32,YEARS,M,ASIAN,HISPANIC OR LATINO,ARM2,Treatment 2,ARM2,Treatment 2,BB,2025-03-27,14
STUDY001,DM,STUDY001-SUBJ0063,SUBJ0063,2025-02-13,2026-01-28,2025-06-04,2026-01-10,2025-09-22,2026-01-28,,,33,50,YEARS,M,AMERICAN INDIAN OR ALASKA NATIVE,HISPANIC OR LATINO,ARM2,Treatment 2,ARM2,Treatment 2,DO,2025-10-09,28
STUDY001,DM,STUDY001-SUBJ0064,SUBJ0064,2025-02-10,2026-01-08,2025-10-18,2026-01-26,2025-06-01,2026-01-08,,,11,67,YEARS,M,WHITE,NOT HISPANIC OR LATINO,ARM3,Treatment 3,ARM3,Treatment 3,NI,2025-07-11,21
STUDY001,DM,STUDY001-SUBJ0065,SUBJ0065,2025-06-23,2026-01-28,2025-04-03,2026-01-12,2025-04-13,2026-01-28,,,2,20,YEARS,M,ASIAN,HISPANIC OR LATINO,ARM3,Treatment 3,ARM3,Treatment 3,AR,2025-05-11,9
STUDY001,DM,STUDY001-SUBJ0066,SUBJ0066,2025-11-18,2026-01-29,2026-01-03,2026-01-14,2025-12-11,2026-01-29,,,21,74,YEARS,F,OTHER,HISPANIC OR LATINO,ARM3,Treatment 3,ARM3,Treatment 3,SD,2025-12-11,23
STUDY001,DM,STUDY001-SUBJ0067,SUBJ0067,2025-02-03,2026-01-11,2025-11-03,2026-02-03,2025-12-20,2026-01-11,,,15,51,YEARS,F,OTHER,HISPANIC OR LATINO,ARM1,Treatment 1,ARM1,Treatment 1,ES,2025-05-03,20
STUDY001,DM,STUDY001-SUBJ0068,SUBJ0068,2025-05-23,2026-01-30,2025-10-24,2026-01-17,2025-06-15,2026-01-30,,,44,33,YEARS,M,OTHER,HISPANIC OR LATINO,ARM2,Treatment 2,ARM2,Treatment 2,SL,2025-04-30,9
STUDY001,DM,STUDY001-SUBJ0069,SUBJ0069,2025-07-19,2026-01-28,2025-12-19,2026-01-05,2025-05-05,2026-01-28,,,46,44,YEARS,M,ASIAN,HISPANIC OR LATINO,ARM3,Treatment 3,ARM3,Treatment 3,SG,2025-09-20,19
STUDY001,DM,STUDY001-SUBJ0070,SUBJ0070,2025-07-31,2026-01-26,2025-06-06,2026-01-08,2025-02-28,2026-01-26,,,11,59,YEARS,F,OTHER,HISPANIC OR LATINO,ARM1,Treatment 1,ARM1,Treatment 1,AT,2026-01-04,4
STUDY001,DM,STUDY001-SUBJ0071,SUBJ0071,2025-02-05,2026-01-14,2025-08-22,2026-01-05,2025-06-09,2026-01-14,,,6,79,YEARS,M,BLACK OR AFRICAN AMERICAN,NOT HISPANIC OR LATINO,ARM3,Treatment 3,ARM3,Treatment 3,TH,2025-04-21,10
STUDY001,DM,STUDY001-SUBJ0072,SUBJ0072,2025-07-24,2026-01-25,2025-11-28,2026-01-23,2025-12-13,2026-01-25,,,29,42,YEARS,F,BLACK OR AFRICAN AMERICAN,HISPANIC OR LATINO,ARM3,Treatment 3,ARM3,Treatment 3,JM,2025-12-31,21
STUDY001,DM,STUDY001-SUBJ0073,SUBJ0073,2025-05-03,2026-01-17,2025-10-17,2026-01-10,2025-07-15,2026-01-17,,,10,43,YEARS,M,AMERICAN INDIAN OR ALASKA NATIVE,NOT HISPANIC OR LATINO,ARM3,Treatment 3,ARM3,Treatment 3,MD,2025-06-09,9
STUDY001,DM,STUDY001-SUBJ0074,SUBJ0074,2025-11-11,2026-01-18,2025-12-01,2026-01-16,2026-01-04,2026-01-18,,,46,32,YEARS,M,AMERICAN INDIAN OR ALASKA NATIVE,NOT HISPANIC OR LATINO,ARM1,Treatment 1,ARM1,Treatment 1,LB,2025-07-07,24
STUDY001,DM,STUDY001-SUBJ0075,SUBJ0075,2025-11-20,2026-01-17,2025-09-15,2026-01-19,2025-11-26,2026-01-17,,,27,73,YEARS,M,BLACK OR AFRICAN AMERICAN,NOT HISPANIC OR LATINO,ARM1,Treatment 1,ARM1,Treatment 1,MW,2025-03-09,12
STUDY001,DM,STUDY001-SUBJ0076,SUBJ0076,2025-10-28,2026-01-25,2025-08-28,2026-01-08,2025-10-08,2026-01-25,,,1,52,YEARS,M,AMERICAN INDIAN OR ALASKA NATIVE,NOT HISPANIC OR LATINO,ARM1,Treatment 1,ARM1,Treatment 1,VU,2025-08-23,25
STUDY001,DM,STUDY001-SUBJ0077,SUBJ0077,2025-09-26,2026-01-13,2025-04-02,2026-01-31,2025-05-13,2026-01-13,,,26,69,YEARS,F,ASIAN,NOT HISPANIC OR LATINO,ARM2,Treatment 2,ARM2,Treatment 2,GD,2025-10-02,28
STUDY001,DM,STUDY001-SUBJ0078,SUBJ0078,2025-11-27,2026-01-18,2025-12-03,2026-01-27,2025-03-13,2026-01-18,,,47,35,YEARS,F,ASIAN,HISPANIC OR LATINO,ARM1,Treatment 1,ARM1,Treatment 1,HU,2025-02-19,28
STUDY001,DM,STUDY001-SUBJ0079,SUBJ0079,2025-06-30,2026-01-31,2025-12-16,2026-02-03,2025-05-21,2026-01-31,,,24,38,YEARS,F,AMERICAN INDIAN OR ALASKA NATIVE,HISPANIC OR LATINO,ARM3,Treatment 3,ARM3,Treatment 3,PH,2025-04-20,23
STUDY001,DM,STUDY001-SUBJ0080,SUBJ0080,2025-02-28,2026-01-28,2025-02-03,2026-02-01,2025-02-10,2026-01-28,,,7,40,YEARS,M,OTHER,HISPANIC OR LATINO,ARM1,Treatment 1,ARM3,Treatment 3,IT,2025-09-30,13
STUDY001,DM,STUDY001-SUBJ0081,SUBJ0081,2025-05-29,2026-01-12,2025-07-28,2026-01-21,2025-09-01,2026-01-12,,,8,29,YEARS,M,OTHER,HISPANIC OR LATINO,ARM2,Treatment 2,ARM2,Treatment 2,NG,2025-11-07,13
STUDY001,DM,STUDY001-SUBJ0082,SUBJ0082,2025-08-15,2026-01-29,2025-12-27,2026-01-09,2025-12-16,2026-01-29,,,10,62,YEARS,F,WHITE,NOT HISPANIC OR LATINO,ARM2,Treatment 2,ARM2,Treatment 2,RS,2025-08-20,26
STUDY001,DM,STUDY001-SUBJ0083,SUBJ0083,2025-03-18,2026-01-17,2025-12-06,2026-01-15,2025-10-19,2026-01-17,,,16,69,YEARS,M,ASIAN,HISPANIC OR LATINO,ARM2,Treatment 2,ARM3,Treatment 3,RU,2025-11-23,3
STUDY001,DM,STUDY001-SUBJ0084,SUBJ0084,2025-05-16,2026-01-28,2025-06-13,2026-01-16,2025-04-15,2026-01-28,,,23,51,YEARS,F,WHITE,HISPANIC OR LATINO,ARM2,Treatment 2,ARM2,Treatment 2,TT,2025-07-17,5
STUDY001,DM,STUDY001-SUBJ0085,SUBJ0085,2025-06-04,2026-01-28,2025-06-25,2026-01-14,2025-04-01,2026-01-28,,,4,62,YEARS,M,AMERICAN INDIAN OR ALASKA NATIVE,NOT HISPANIC OR LATINO,ARM1,Treatment 1,ARM2,Treatment 2,MZ,2025-12-26,6
STUDY001,DM,STUDY001-SUBJ0086,SUBJ0086,2025-04-03,2026-01-27,2025-12-25,2026-01-11,2025-09-10,2026-01-27,,,28,62,YEARS,M,WHITE,HISPANIC OR LATINO,ARM3,Treatment 3,ARM3,Treatment 3,AE,2025-08-25,28
STUDY001,DM,STUDY001-SUBJ0087,SUBJ0087,2025-03-20,2026-01-16,2025-10-16,2026-01-30,2025-02-21,2026-01-16,,,11,42,YEARS,F,BLACK OR AFRICAN AMERICAN,HISPANIC OR LATINO,ARM2,Treatment 2,ARM2,Treatment 2,LC,2025-11-29,2
STUDY001,DM,STUDY001-SUBJ0088,SUBJ0088,2025-09-19,2026-01-13,2025-03-03,2026-01-12,2025-06-15,2026-01-13,,,44,76,YEARS,M,WHITE,NOT HISPANIC OR LATINO,ARM2,Treatment 2,ARM2,Treatment 2,EE,2025-07-29,4
STUDY001,DM,STUDY001-SUBJ0089,SUBJ0089,2025-03-25,2026-01-13,2025-02-26,2026-01-14,2025-04-02,2026-01-13,,,30,78,YEARS,M,AMERICAN INDIAN OR ALASKA NATIVE,HISPANIC OR LATINO,ARM3,Treatment 3,ARM3,Treatment 3,YE,2025-04-28,5
STUDY001,DM,STUDY001-SUBJ0090,SUBJ0090,2025-07-26,2026-01-26,2025-08-12,2026-01-12,2025-05-12,2026-01-26,,,46,51,YEARS,F,WHITE,NOT HISPANIC OR LATINO,ARM1,Treatment 1,ARM1,Treatment 1,ER,2025-07-10,11
STUDY001,DM,STUDY001-SUBJ0091,SUBJ0091,2025-06-09,2026-01-09,2025-05-18,2026-01-26,2025-12-02,2026-01-09,,,30,38,YEARS,M,OTHER,HISPANIC OR LATINO,ARM2,Treatment 2,ARM2,Treatment 2,NZ,2025-02-05,10
STUDY001,DM,STUDY001-SUBJ0092,SUBJ0092,2025-08-02,2026-01-23,2025-12-10,2026-01-15,2025-09-24,2026-01-23,,,22,42,YEARS,F,ASIAN,NOT HISPANIC OR LATINO,ARM1,Treatment 1,ARM1,Treatment 1,ZW,2025-04-08,25
STUDY001,DM,STUDY001-SUBJ0093,SUBJ0093,2025-09-02,2026-01-09,2025-06-02,2026-02-02,2025-07-07,2026-01-09,,,21,51,YEARS,M,OTHER,NOT HISPANIC OR LATINO,ARM2,Treatment 2,ARM2,Treatment 2,TJ,2025-11-03,4
STUDY001,DM,STUDY001-SUBJ0094,SUBJ0094,2025-04-17,2026-01-19,2025-09-10,2026-01-27,2025-02-23,2026-01-19,,,46,80,YEARS,M,BLACK OR AFRICAN AMERICAN,HISPANIC OR LATINO,ARM2,Treatment 2,ARM2,Treatment 2,ME,2025-02-24,16
STUDY001,DM,STUDY001-SUBJ0095,SUBJ0095,2025-09-14,2026-01-29,2025-08-26,2026-01-16,2025-08-19,2026-01-29,,,9,72,YEARS,M,ASIAN,HISPANIC OR LATINO,ARM2,Treatment 2,ARM2,Treatment 2,IN,2025-05-30,5
STUDY001,DM,STUDY001-SUBJ0096,SUBJ0096,2025-10-31,2026-01-28,2025-04-17,2026-01-25,2025-03-07,2026-01-28,,,26,25,YEARS,M,AMERICAN INDIAN OR ALASKA NATIVE,HISPANIC OR LATINO,ARM3,Treatment 3,ARM3,Treatment 3,GQ,2025-05-14,19
STUDY001,DM,STUDY001-SUBJ0097,SUBJ0097,2025-11-26,2026-01-20,2025-08-11,2026-01-30,2025-03-21,2026-01-20,,,15,58,YEARS,M,BLACK OR AFRICAN AMERICAN,NOT HISPANIC OR LATINO,ARM2,Treatment 2,ARM2,Treatment 2,MR,2025-04-23,29
STUDY001,DM,STUDY001-SUBJ0098,SUBJ0098,2025-07-04,2026-01-18,2025-02-12,2026-01-17,2025-04-18,2026-01-18,,,26,61,YEARS,F,AMERICAN INDIAN OR ALASKA NATIVE,HISPANIC OR LATINO,ARM3,Treatment 3,ARM3,Treatment 3,FR,2025-07-13,9
STUDY001,DM,STUDY001-SUBJ0099,SUBJ0099,2025-04-12,2026-01-27,2025-12-29,2026-01-07,2025-05-15,2026-01-27,,,32,46,YEARS,M,ASIAN,HISPANIC OR LATINO,ARM3,Treatment 3,ARM3,Treatment 3,BG,2025-02-03,25
STUDY001,DM,STUDY001-SUBJ0100,SUBJ0100,2025-05-09,2026-02-01,2025-09-28,2026-02-02,2025-06-03,2026-02-01,,,50,61,YEARS,M,OTHER,HISPANIC OR LATINO,ARM2,Treatment 2,ARM1,Treatment 1,UA,2025-04-14,20
